[{"id": "SVGb0006", "dir": "./data/SVGb0006/csv", "blocks": [{"dir": "./data/SVGb0006/csv/SVGb0006_block_1.json", "block": 1, "repetition": [{"rt": 3299.6649999986403, "stimulus": "[A] option 1, [L] option 2", "key_press": 65, "name": "choice", "trial_type": "html-keyboard-response", "trial_index": 16, "time_elapsed": 39122, "internal_node_id": "0.0-16.0", "response": "1st", "certainty": "high", "char": "A", "diatonic": [4, 7, 10, 7, 9, 12, 9, 10, 13, 10, 12, 15, 12], "chromatic": [4, 7, 10, 7, 10, 13, 10, 13, 16, 13, 16, 19, 16], "unique_diatonic": 7, "unique_chromatic": 4, "necklace": [0, 2, 3, 5, 6, 8, 9], "scale": [0, 3, 5, 6, 8, 9, 11], "fragment_generic": [1, 2, -2], "fragment_specific": [3, 3, -3], "mode": 6, "block": 1, "transposition": 4, "order": ["chromatic", "diatonic"], "question_num": 1, "subject": "SVGb0006", "sona": "39623", "time": "2021-03-09T22:33:06.532Z", "excluded": false}, {"rt": 2222.9200000001583, "stimulus": "[A] option 1, [L] option 2", "key_press": 65, "name": "choice", "trial_type": "html-keyboard-response", "trial_index": 27, "time_elapsed": 59070, "internal_node_id": "0.0-27.0", "response": "1st", "certainty": "high", "char": "A", "diatonic": [4, 2, -1, 1, -1, -4, -2, -4, -8, -7, -8, -11, -10], "chromatic": [4, 2, -1, 1, -1, -4, -2, -4, -7, -5, -7, -10, -8], "unique_diatonic": 7, "unique_chromatic": 8, "necklace": [0, 2, 3, 5, 6, 8, 9], "scale": [0, 1, 4, 6, 7, 9, 10], "fragment_generic": [-1, -2, 1], "fragment_specific": [-2, -3, 2], "mode": 5, "block": 1, "transposition": 4, "order": ["diatonic", "chromatic"], "question_num": 2, "subject": "SVGb0006", "sona": "39623", "time": "2021-03-09T22:33:06.532Z", "excluded": false}, {"rt": 1085.5199999932665, "stimulus": "[A] option 1, [L] option 2", "key_press": 65, "name": "choice", "trial_type": "html-keyboard-response", "trial_index": 38, "time_elapsed": 75610, "internal_node_id": "0.0-38.0", "response": "1st", "certainty": "high", "char": "A", "diatonic": [1, 2, 5, 6, 8, 10, 11, 13, 14], "chromatic": [1, 2, 5, 6, 9, 10, 13, 14, 17], "unique_diatonic": 7, "unique_chromatic": 6, "necklace": [0, 2, 4, 5, 7, 8, 11], "scale": [0, 1, 4, 5, 7, 9, 10], "fragment_generic": [1, 1], "fragment_specific": [1, 3], "mode": 4, "block": 1, "transposition": 1, "order": ["chromatic", "diatonic"], "question_num": 3, "subject": "SVGb0006", "sona": "39623", "time": "2021-03-09T22:33:06.532Z", "excluded": false}, {"rt": 3506.7050000070594, "stimulus": "[A] option 1, [L] option 2", "key_press": 76, "name": "choice", "trial_type": "html-keyboard-response", "trial_index": 49, "time_elapsed": 92457, "internal_node_id": "0.0-49.0", "response": "2nd", "certainty": "high", "char": "L", "diatonic": [3, 5, 6, 8, 9, 11, 13, 15, 17], "chromatic": [3, 5, 6, 8, 9, 11, 12, 14, 15], "unique_diatonic": 7, "unique_chromatic": 8, "necklace": [0, 2, 3, 5, 7, 9, 11], "scale": [0, 2, 3, 5, 6, 8, 10], "fragment_generic": [1, 1], "fragment_specific": [2, 1], "mode": 5, "block": 1, "transposition": 3, "order": ["chromatic", "diatonic"], "question_num": 4, "subject": "SVGb0006", "sona": "39623", "time": "2021-03-09T22:33:06.532Z", "excluded": false}, {"rt": 727.3799999966286, "stimulus": "[A] option 1, [L] option 2", "key_press": 76, "name": "choice", "trial_type": "html-keyboard-response", "trial_index": 60, "time_elapsed": 109868, "internal_node_id": "0.0-60.0", "response": "2nd", "certainty": "high", "char": "L", "diatonic": [9, 4, 9, 4, 1, 4, 1, -2, 1, -2, -5, -2, -5], "chromatic": [9, 4, 9, 4, -1, 4, -1, -6, -1, -6, -11, -6, -11], "unique_diatonic": 5, "unique_chromatic": 5, "necklace": [0, 2, 3, 5, 6, 8, 9], "scale": [0, 1, 3, 4, 6, 7, 10], "fragment_generic": [-2, 2, -2], "fragment_specific": [-5, 5, -5], "mode": 1, "block": 1, "transposition": 9, "order": ["diatonic", "chromatic"], "question_num": 5, "subject": "SVGb0006", "sona": "39623", "time": "2021-03-09T22:33:06.532Z", "excluded": false}, {"rt": 2211.989999996149, "stimulus": "[A] option 1, [L] option 2", "key_press": 65, "name": "choice", "trial_type": "html-keyboard-response", "trial_index": 71, "time_elapsed": 128959, "internal_node_id": "0.0-71.0", "response": "1st", "certainty": "high", "char": "A", "diatonic": [4, 8, 6, 2, 6, 4, 1, 4, 2, -1, 2, 1, -2], "chromatic": [4, 8, 6, 2, 6, 4, 0, 4, 2, -2, 2, 0, -4], "unique_diatonic": 7, "unique_chromatic": 6, "necklace": [0, 2, 3, 5, 7, 9, 11], "scale": [0, 2, 4, 6, 7, 9, 10], "fragment_generic": [2, -1, -2], "fragment_specific": [4, -2, -4], "mode": 3, "block": 1, "transposition": 4, "order": ["diatonic", "chromatic"], "question_num": 6, "subject": "SVGb0006", "sona": "39623", "time": "2021-03-09T22:33:06.532Z", "excluded": false}, {"rt": 1688.3749999979045, "stimulus": "[A] option 1, [L] option 2", "key_press": 65, "name": "choice", "trial_type": "html-keyboard-response", "trial_index": 82, "time_elapsed": 144853, "internal_node_id": "0.0-82.0", "response": "1st", "certainty": "high", "char": "A", "diatonic": [3, 1, 0, -2, -3, -5, -7, -9, -11], "chromatic": [3, 1, 0, -2, -3, -5, -6, -8, -9], "unique_diatonic": 7, "unique_chromatic": 8, "necklace": [0, 2, 3, 5, 7, 9, 11], "scale": [0, 2, 4, 6, 7, 9, 10], "fragment_generic": [-1, -1], "fragment_specific": [-2, -1], "mode": 3, "block": 1, "transposition": 3, "order": ["chromatic", "diatonic"], "question_num": 7, "subject": "SVGb0006", "sona": "39623", "time": "2021-03-09T22:33:06.532Z", "excluded": false}, {"rt": 1365.9699999989243, "stimulus": "[A] option 1, [L] option 2", "key_press": 76, "name": "choice", "trial_type": "html-keyboard-response", "trial_index": 93, "time_elapsed": 162416, "internal_node_id": "0.0-93.0", "response": "2nd", "certainty": "high", "char": "L", "diatonic": [5, 7, 5, 1, 2, 1, -2, -1, -2, -5, -4, -5, -10], "chromatic": [5, 7, 5, 1, 3, 1, -3, -1, -3, -7, -5, -7, -11], "unique_diatonic": 7, "unique_chromatic": 6, "necklace": [0, 2, 3, 5, 6, 8, 9], "scale": [0, 2, 3, 5, 6, 8, 9], "fragment_generic": [1, -1, -2], "fragment_specific": [2, -2, -4], "mode": 0, "block": 1, "transposition": 5, "order": ["chromatic", "diatonic"], "question_num": 8, "subject": "SVGb0006", "sona": "39623", "time": "2021-03-09T22:33:06.532Z", "excluded": false}, {"rt": 1068.169999998645, "stimulus": "[A] option 1, [L] option 2", "key_press": 65, "name": "choice", "trial_type": "html-keyboard-response", "trial_index": 104, "time_elapsed": 179714, "internal_node_id": "0.0-104.0", "response": "1st", "certainty": "high", "char": "A", "diatonic": [0, 3, 1, -2, 1, 0, -3, 0, -2, -5, -2, -3, -8], "chromatic": [0, 3, 1, -2, 1, -1, -4, -1, -3, -6, -3, -5, -8], "unique_diatonic": 7, "unique_chromatic": 10, "necklace": [0, 2, 3, 5, 6, 8, 9], "scale": [0, 1, 3, 4, 7, 9, 10], "fragment_generic": [2, -1, -2], "fragment_specific": [3, -2, -3], "mode": 3, "block": 1, "transposition": 0, "order": ["diatonic", "chromatic"], "question_num": 9, "subject": "SVGb0006", "sona": "39623", "time": "2021-03-09T22:33:06.532Z", "excluded": false}, {"rt": 792.3449999943841, "stimulus": "[A] option 1, [L] option 2", "key_press": 65, "name": "choice", "trial_type": "html-keyboard-response", "trial_index": 115, "time_elapsed": 196946, "internal_node_id": "0.0-115.0", "response": "1st", "certainty": "high", "char": "A", "diatonic": [5, 2, 5, 3, 0, 3, 2, -1, 2, 0, -3, 0, -1], "chromatic": [5, 2, 5, 3, 0, 3, 1, -2, 1, -1, -4, -1, -3], "unique_diatonic": 6, "unique_chromatic": 9, "necklace": [0, 2, 3, 5, 7, 9, 11], "scale": [0, 2, 4, 6, 7, 9, 10], "fragment_generic": [-2, 2, -1], "fragment_specific": [-3, 3, -2], "mode": 3, "block": 1, "transposition": 5, "order": ["chromatic", "diatonic"], "question_num": 10, "subject": "SVGb0006", "sona": "39623", "time": "2021-03-09T22:33:06.532Z", "excluded": false}, {"rt": 841.839999993681, "stimulus": "[A] option 1, [L] option 2", "key_press": 65, "name": "choice", "trial_type": "html-keyboard-response", "trial_index": 126, "time_elapsed": 211126, "internal_node_id": "0.0-126.0", "response": "1st", "certainty": "high", "char": "A", "diatonic": [2, 4, 0, 2, -1, 0, -4, -1, -5], "chromatic": [2, 4, 0, 2, -2, 0, -4, -2, -6], "unique_diatonic": 6, "unique_chromatic": 6, "necklace": [0, 2, 4, 5, 7, 8, 11], "scale": [0, 2, 3, 5, 6, 9, 10], "fragment_generic": [1, -2], "fragment_specific": [2, -4], "mode": 1, "block": 1, "transposition": 2, "order": ["diatonic", "chromatic"], "question_num": 11, "subject": "SVGb0006", "sona": "39623", "time": "2021-03-09T22:33:06.532Z", "excluded": false}, {"rt": 687.5449999934062, "stimulus": "[A] option 1, [L] option 2", "key_press": 65, "name": "choice", "trial_type": "html-keyboard-response", "trial_index": 137, "time_elapsed": 228114, "internal_node_id": "0.0-137.0", "response": "1st", "certainty": "high", "char": "A", "diatonic": [6, 10, 6, 4, 7, 4, 3, 6, 3, 1, 4, 1, 0], "chromatic": [6, 10, 6, 4, 8, 4, 2, 6, 2, 0, 4, 0, -2], "unique_diatonic": 7, "unique_chromatic": 6, "necklace": [0, 2, 3, 5, 6, 8, 9], "scale": [0, 1, 4, 6, 7, 9, 10], "fragment_generic": [2, -2, -1], "fragment_specific": [4, -4, -2], "mode": 5, "block": 1, "transposition": 6, "order": ["chromatic", "diatonic"], "question_num": 12, "subject": "SVGb0006", "sona": "39623", "time": "2021-03-09T22:33:06.532Z", "excluded": false}, {"rt": 726.3550000061514, "stimulus": "[A] option 1, [L] option 2", "key_press": 76, "name": "choice", "trial_type": "html-keyboard-response", "trial_index": 148, "time_elapsed": 242091, "internal_node_id": "0.0-148.0", "response": "2nd", "certainty": "high", "char": "L", "diatonic": [4, 5, 7, 9, 11, 13, 14, 16, 17], "chromatic": [4, 5, 7, 8, 10, 11, 13, 14, 16], "unique_diatonic": 7, "unique_chromatic": 8, "necklace": [0, 2, 3, 5, 7, 9, 11], "scale": [0, 1, 3, 5, 7, 9, 10], "fragment_generic": [1, 1], "fragment_specific": [1, 2], "mode": 1, "block": 1, "transposition": 4, "order": ["chromatic", "diatonic"], "question_num": 13, "subject": "SVGb0006", "sona": "39623", "time": "2021-03-09T22:33:06.532Z", "excluded": false}, {"rt": 1662.4299999966752, "stimulus": "[A] option 1, [L] option 2", "key_press": 65, "name": "choice", "trial_type": "html-keyboard-response", "trial_index": 159, "time_elapsed": 260640, "internal_node_id": "0.0-159.0", "response": "1st", "certainty": "high", "char": "A", "diatonic": [6, 8, 4, 3, 4, 1, 0, 1, -2, -4, -2, -6, -8], "chromatic": [6, 8, 4, 3, 5, 1, 0, 2, -2, -3, -1, -5, -6], "unique_diatonic": 7, "unique_chromatic": 12, "necklace": [0, 2, 3, 5, 7, 9, 11], "scale": [0, 2, 4, 6, 7, 9, 10], "fragment_generic": [1, -2, -1], "fragment_specific": [2, -4, -1], "mode": 3, "block": 1, "transposition": 6, "order": ["chromatic", "diatonic"], "question_num": 14, "subject": "SVGb0006", "sona": "39623", "time": "2021-03-09T22:33:06.532Z", "excluded": false}, {"rt": 368.1700000015553, "stimulus": "[A] option 1, [L] option 2", "key_press": 65, "name": "choice", "trial_type": "html-keyboard-response", "trial_index": 170, "time_elapsed": 277324, "internal_node_id": "0.0-170.0", "response": "1st", "certainty": "high", "char": "A", "diatonic": [4, 8, 4, 2, 6, 2, 0, 4, 0, -1, 2, -1, -3], "chromatic": [4, 8, 4, 2, 6, 2, 0, 4, 0, -2, 2, -2, -4], "unique_diatonic": 7, "unique_chromatic": 6, "necklace": [0, 2, 3, 5, 7, 9, 11], "scale": [0, 2, 4, 5, 7, 8, 10], "fragment_generic": [2, -2, -1], "fragment_specific": [4, -4, -2], "mode": 4, "block": 1, "transposition": 4, "order": ["chromatic", "diatonic"], "question_num": 15, "subject": "SVGb0006", "sona": "39623", "time": "2021-03-09T22:33:06.532Z", "excluded": false}, {"rt": 2202.2950000100536, "stimulus": "[A] option 1, [L] option 2", "key_press": 76, "name": "choice", "trial_type": "html-keyboard-response", "trial_index": 181, "time_elapsed": 292905, "internal_node_id": "0.0-181.0", "response": "2nd", "certainty": "high", "char": "L", "diatonic": [4, 5, 7, 8, 11, 12, 14, 16, 17], "chromatic": [4, 5, 7, 8, 10, 11, 13, 14, 16], "unique_diatonic": 7, "unique_chromatic": 8, "necklace": [0, 2, 4, 5, 7, 8, 11], "scale": [0, 1, 3, 4, 7, 8, 10], "fragment_generic": [1, 1], "fragment_specific": [1, 2], "mode": 2, "block": 1, "transposition": 4, "order": ["chromatic", "diatonic"], "question_num": 16, "subject": "SVGb0006", "sona": "39623", "time": "2021-03-09T22:33:06.532Z", "excluded": false}, {"rt": 1471.350000007078, "stimulus": "[A] option 1, [L] option 2", "key_press": 65, "name": "choice", "trial_type": "html-keyboard-response", "trial_index": 192, "time_elapsed": 311227, "internal_node_id": "0.0-192.0", "response": "1st", "certainty": "high", "char": "A", "diatonic": [3, 6, 3, 0, 3, 0, -4, 0, -4, -8, -4, -8, -11], "chromatic": [3, 6, 3, 0, 3, 0, -3, 0, -3, -6, -3, -6, -9], "unique_diatonic": 6, "unique_chromatic": 4, "necklace": [0, 2, 3, 5, 7, 9, 11], "scale": [0, 1, 3, 5, 7, 9, 10], "fragment_generic": [2, -2, -2], "fragment_specific": [3, -3, -3], "mode": 1, "block": 1, "transposition": 3, "order": ["diatonic", "chromatic"], "question_num": 17, "subject": "SVGb0006", "sona": "39623", "time": "2021-03-09T22:33:06.532Z", "excluded": false}, {"rt": 1364.5150000083959, "stimulus": "[A] option 1, [L] option 2", "key_press": 76, "name": "choice", "trial_type": "html-keyboard-response", "trial_index": 203, "time_elapsed": 325882, "internal_node_id": "0.0-203.0", "response": "2nd", "certainty": "high", "char": "L", "diatonic": [6, 4, 2, 1, -1, -2, -4, -6, -8], "chromatic": [6, 4, 2, 0, -2, -4, -6, -8, -10], "unique_diatonic": 7, "unique_chromatic": 6, "necklace": [0, 2, 3, 5, 7, 9, 11], "scale": [0, 2, 4, 5, 7, 8, 10], "fragment_generic": [-1, -1], "fragment_specific": [-2, -2], "mode": 4, "block": 1, "transposition": 6, "order": ["chromatic", "diatonic"], "question_num": 18, "subject": "SVGb0006", "sona": "39623", "time": "2021-03-09T22:33:06.532Z", "excluded": false}, {"rt": 264.195000010659, "stimulus": "[A] option 1, [L] option 2", "key_press": 65, "name": "choice", "trial_type": "html-keyboard-response", "trial_index": 214, "time_elapsed": 342354, "internal_node_id": "0.0-214.0", "response": "1st", "certainty": "high", "char": "A", "diatonic": [4, 6, 4, 6, 7, 6, 7, 9, 7, 9, 10, 9, 10], "chromatic": [4, 6, 4, 6, 8, 6, 8, 10, 8, 10, 12, 10, 12], "unique_diatonic": 5, "unique_chromatic": 5, "necklace": [0, 2, 3, 5, 7, 9, 11], "scale": [0, 2, 3, 5, 6, 8, 10], "fragment_generic": [1, -1, 1], "fragment_specific": [2, -2, 2], "mode": 5, "block": 1, "transposition": 4, "order": ["diatonic", "chromatic"], "question_num": 19, "subject": "SVGb0006", "sona": "39623", "time": "2021-03-09T22:33:06.532Z", "excluded": false}, {"rt": 400.79500000865664, "stimulus": "[A] option 1, [L] option 2", "key_press": 65, "name": "choice", "trial_type": "html-keyboard-response", "trial_index": 225, "time_elapsed": 356046, "internal_node_id": "0.0-225.0", "response": "1st", "certainty": "high", "char": "A", "diatonic": [5, 7, 9, 11, 13, 14, 16, 17, 19], "chromatic": [5, 7, 9, 11, 13, 15, 17, 19, 21], "unique_diatonic": 7, "unique_chromatic": 6, "necklace": [0, 2, 3, 5, 7, 9, 11], "scale": [0, 2, 4, 6, 8, 9, 11], "fragment_generic": [1, 1], "fragment_specific": [2, 2], "mode": 2, "block": 1, "transposition": 5, "order": ["diatonic", "chromatic"], "question_num": 20, "subject": "SVGb0006", "sona": "39623", "time": "2021-03-09T22:33:06.532Z", "excluded": false}, {"rt": 452.4600000004284, "stimulus": "[A] option 1, [L] option 2", "key_press": 76, "name": "choice", "trial_type": "html-keyboard-response", "trial_index": 236, "time_elapsed": 372822, "internal_node_id": "0.0-236.0", "response": "2nd", "certainty": "high", "char": "L", "diatonic": [2, -1, 2, 1, -3, 1, -1, -4, -1, -3, -7, -3, -4], "chromatic": [2, -1, 2, 1, -2, 1, 0, -3, 0, -1, -4, -1, -2], "unique_diatonic": 6, "unique_chromatic": 7, "necklace": [0, 2, 4, 5, 7, 8, 11], "scale": [0, 2, 3, 6, 7, 9, 11], "fragment_generic": [-2, 2, -1], "fragment_specific": [-3, 3, -1], "mode": 3, "block": 1, "transposition": 2, "order": ["diatonic", "chromatic"], "question_num": 21, "subject": "SVGb0006", "sona": "39623", "time": "2021-03-09T22:33:06.532Z", "excluded": false}, {"rt": 488.23499999707565, "stimulus": "[A] option 1, [L] option 2", "key_press": 76, "name": "choice", "trial_type": "html-keyboard-response", "trial_index": 247, "time_elapsed": 389565, "internal_node_id": "0.0-247.0", "response": "2nd", "certainty": "high", "char": "L", "diatonic": [1, -2, 1, 5, 1, 5, 9, 5, 9, 12, 9, 12, 16], "chromatic": [1, -2, 1, 5, 2, 5, 9, 6, 9, 13, 10, 13, 17], "unique_diatonic": 6, "unique_chromatic": 6, "necklace": [0, 2, 4, 5, 7, 8, 11], "scale": [0, 3, 4, 6, 8, 9, 11], "fragment_generic": [-2, 2, 2], "fragment_specific": [-3, 3, 4], "mode": 5, "block": 1, "transposition": 1, "order": ["chromatic", "diatonic"], "question_num": 22, "subject": "SVGb0006", "sona": "39623", "time": "2021-03-09T22:33:06.532Z", "excluded": false}, {"rt": 700.3100000001723, "stimulus": "[A] option 1, [L] option 2", "key_press": 65, "name": "choice", "trial_type": "html-keyboard-response", "trial_index": 258, "time_elapsed": 403536, "internal_node_id": "0.0-258.0", "response": "1st", "certainty": "high", "char": "A", "diatonic": [3, 2, 6, 3, 8, 6, 9, 8, 11], "chromatic": [3, 2, 6, 5, 9, 8, 12, 11, 15], "unique_diatonic": 6, "unique_chromatic": 8, "necklace": [0, 2, 3, 5, 6, 8, 9], "scale": [0, 3, 5, 6, 8, 9, 11], "fragment_generic": [-1, 2], "fragment_specific": [-1, 4], "mode": 6, "block": 1, "transposition": 3, "order": ["chromatic", "diatonic"], "question_num": 23, "subject": "SVGb0006", "sona": "39623", "time": "2021-03-09T22:33:06.532Z", "excluded": false}, {"rt": 302.01499999384396, "stimulus": "[A] option 1, [L] option 2", "key_press": 65, "name": "choice", "trial_type": "html-keyboard-response", "trial_index": 269, "time_elapsed": 420187, "internal_node_id": "0.0-269.0", "response": "1st", "certainty": "high", "char": "A", "diatonic": [2, 4, 2, 4, 6, 4, 6, 7, 6, 7, 9, 7, 9], "chromatic": [2, 4, 2, 4, 6, 4, 6, 8, 6, 8, 10, 8, 10], "unique_diatonic": 5, "unique_chromatic": 5, "necklace": [0, 2, 3, 5, 7, 9, 11], "scale": [0, 2, 4, 5, 7, 8, 10], "fragment_generic": [1, -1, 1], "fragment_specific": [2, -2, 2], "mode": 4, "block": 1, "transposition": 2, "order": ["diatonic", "chromatic"], "question_num": 24, "subject": "SVGb0006", "sona": "39623", "time": "2021-03-09T22:33:06.532Z", "excluded": false}, {"rt": 354.5550000126241, "stimulus": "[A] option 1, [L] option 2", "key_press": 76, "name": "choice", "trial_type": "html-keyboard-response", "trial_index": 280, "time_elapsed": 436813, "internal_node_id": "0.0-280.0", "response": "2nd", "certainty": "high", "char": "L", "diatonic": [4, 7, 4, 2, 5, 2, 1, 4, 1, -1, 2, -1, -3], "chromatic": [4, 7, 4, 2, 5, 2, 0, 3, 0, -2, 1, -2, -4], "unique_diatonic": 7, "unique_chromatic": 9, "necklace": [0, 2, 3, 5, 7, 9, 11], "scale": [0, 1, 3, 5, 7, 9, 10], "fragment_generic": [2, -2, -1], "fragment_specific": [3, -3, -2], "mode": 1, "block": 1, "transposition": 4, "order": ["diatonic", "chromatic"], "question_num": 25, "subject": "SVGb0006", "sona": "39623", "time": "2021-03-09T22:33:06.532Z", "excluded": false}, {"rt": 1416.960000002291, "stimulus": "[A] option 1, [L] option 2", "key_press": 65, "name": "choice", "trial_type": "html-keyboard-response", "trial_index": 291, "time_elapsed": 451419, "internal_node_id": "0.0-291.0", "response": "1st", "certainty": "high", "char": "A", "diatonic": [5, 3, 6, 5, 9, 6, 10, 9, 12], "chromatic": [5, 3, 6, 4, 7, 5, 8, 6, 9], "unique_diatonic": 6, "unique_chromatic": 7, "necklace": [0, 2, 4, 5, 7, 8, 11], "scale": [0, 1, 4, 5, 7, 9, 10], "fragment_generic": [-1, 2], "fragment_specific": [-2, 3], "mode": 4, "block": 1, "transposition": 5, "order": ["chromatic", "diatonic"], "question_num": 26, "subject": "SVGb0006", "sona": "39623", "time": "2021-03-09T22:33:06.532Z", "excluded": false}, {"rt": 257.7900000032969, "stimulus": "[A] option 1, [L] option 2", "key_press": 76, "name": "choice", "trial_type": "html-keyboard-response", "trial_index": 302, "time_elapsed": 467780, "internal_node_id": "0.0-302.0", "response": "2nd", "certainty": "high", "char": "L", "diatonic": [6, 8, 12, 8, 9, 14, 9, 12, 15, 12, 14, 17, 14], "chromatic": [6, 8, 12, 8, 10, 14, 10, 12, 16, 12, 14, 18, 14], "unique_diatonic": 7, "unique_chromatic": 6, "necklace": [0, 2, 3, 5, 6, 8, 9], "scale": [0, 2, 3, 6, 8, 9, 11], "fragment_generic": [1, 2, -2], "fragment_specific": [2, 4, -4], "mode": 4, "block": 1, "transposition": 6, "order": ["chromatic", "diatonic"], "question_num": 27, "subject": "SVGb0006", "sona": "39623", "time": "2021-03-09T22:33:06.532Z", "excluded": false}, {"rt": 448.5100000019884, "stimulus": "[A] option 1, [L] option 2", "key_press": 65, "name": "choice", "trial_type": "html-keyboard-response", "trial_index": 313, "time_elapsed": 484405, "internal_node_id": "0.0-313.0", "response": "1st", "certainty": "high", "char": "A", "diatonic": [0, 3, 0, -1, 2, -1, -3, 0, -3, -4, -1, -4, -6], "chromatic": [0, 3, 0, -1, 2, -1, -2, 1, -2, -3, 0, -3, -4], "unique_diatonic": 7, "unique_chromatic": 8, "necklace": [0, 2, 3, 5, 6, 8, 9], "scale": [0, 2, 3, 6, 8, 9, 11], "fragment_generic": [2, -2, -1], "fragment_specific": [3, -3, -1], "mode": 4, "block": 1, "transposition": 0, "order": ["chromatic", "diatonic"], "question_num": 28, "subject": "SVGb0006", "sona": "39623", "time": "2021-03-09T22:33:06.532Z", "excluded": false}, {"rt": 421.0849999944912, "stimulus": "[A] option 1, [L] option 2", "key_press": 65, "name": "choice", "trial_type": "html-keyboard-response", "trial_index": 324, "time_elapsed": 498095, "internal_node_id": "0.0-324.0", "response": "1st", "certainty": "high", "char": "A", "diatonic": [5, 4, 2, 1, -1, -2, -4, -7, -8], "chromatic": [5, 4, 2, 1, -1, -2, -4, -5, -7], "unique_diatonic": 7, "unique_chromatic": 8, "necklace": [0, 2, 3, 5, 6, 8, 9], "scale": [0, 3, 5, 6, 8, 9, 11], "fragment_generic": [-1, -1], "fragment_specific": [-1, -2], "mode": 6, "block": 1, "transposition": 5, "order": ["chromatic", "diatonic"], "question_num": 29, "subject": "SVGb0006", "sona": "39623", "time": "2021-03-09T22:33:06.532Z", "excluded": false}, {"rt": 220.44999999343418, "stimulus": "[A] option 1, [L] option 2", "key_press": 76, "name": "choice", "trial_type": "html-keyboard-response", "trial_index": 335, "time_elapsed": 514416, "internal_node_id": "0.0-335.0", "response": "2nd", "certainty": "high", "char": "L", "diatonic": [4, 7, 6, 2, 6, 4, 0, 4, 2, -2, 2, 0, -3], "chromatic": [4, 7, 6, 2, 5, 4, 0, 3, 2, -2, 1, 0, -4], "unique_diatonic": 7, "unique_chromatic": 10, "necklace": [0, 2, 3, 5, 7, 9, 11], "scale": [0, 2, 3, 5, 6, 8, 10], "fragment_generic": [2, -1, -2], "fragment_specific": [3, -1, -4], "mode": 5, "block": 1, "transposition": 4, "order": ["diatonic", "chromatic"], "question_num": 30, "subject": "SVGb0006", "sona": "39623", "time": "2021-03-09T22:33:06.532Z", "excluded": false}]}, {"dir": "./data/SVGb0006/csv/SVGb0006_block_2.json", "block": 2, "repetition": [{"rt": 218.9899999939371, "stimulus": "[A] option 1, [L] option 2", "key_press": 76, "name": "choice", "trial_type": "html-keyboard-response", "trial_index": 10, "time_elapsed": 14838, "internal_node_id": "0.0-10.0", "subject": "SVGb0006", "sona": "39623", "block": 2, "time": "2021-03-09T22:45:51.047Z", "response": "2nd", "certainty": "high", "char": "L", "diatonic": [6, 7, 9, 10, 12, 14, 16, 18, 19], "chromatic": [6, 7, 9, 10, 12, 13, 15, 16, 18], "unique_diatonic": 7, "unique_chromatic": 8, "necklace": [0, 2, 3, 5, 7, 9, 11], "scale": [0, 1, 3, 4, 6, 8, 10], "fragment_generic": [1, 1], "fragment_specific": [1, 2], "mode": 6, "transposition": 6, "order": ["chromatic", "diatonic"], "question_num": 1, "excluded": false}, {"rt": 739.8150000080932, "stimulus": "[A] option 1, [L] option 2", "key_press": 65, "name": "choice", "trial_type": "html-keyboard-response", "trial_index": 21, "time_elapsed": 29203, "internal_node_id": "0.0-21.0", "subject": "SVGb0006", "sona": "39623", "block": 2, "time": "2021-03-09T22:45:51.047Z", "response": "1st", "certainty": "high", "char": "A", "diatonic": [3, 2, 5, 3, 6, 5, 8, 6, 9], "chromatic": [3, 2, 5, 4, 7, 6, 9, 8, 11], "unique_diatonic": 6, "unique_chromatic": 9, "necklace": [0, 2, 3, 5, 6, 8, 9], "scale": [0, 2, 3, 5, 6, 9, 11], "fragment_generic": [-1, 2], "fragment_specific": [-1, 3], "mode": 2, "transposition": 3, "order": ["chromatic", "diatonic"], "question_num": 2, "excluded": false}, {"rt": 621.6699999931734, "stimulus": "[A] option 1, [L] option 2", "key_press": 76, "name": "choice", "trial_type": "html-keyboard-response", "trial_index": 32, "time_elapsed": 43604, "internal_node_id": "0.0-32.0", "subject": "SVGb0006", "sona": "39623", "block": 2, "time": "2021-03-09T22:45:51.047Z", "response": "2nd", "certainty": "high", "char": "L", "diatonic": [2, -2, -1, -4, -2, -5, -4, -7, -5], "chromatic": [2, -2, -1, -5, -4, -8, -7, -11, -10], "unique_diatonic": 6, "unique_chromatic": 8, "necklace": [0, 2, 3, 5, 6, 8, 9], "scale": [0, 2, 3, 5, 6, 8, 9], "fragment_generic": [-2, 1], "fragment_specific": [-4, 1], "mode": 0, "transposition": 2, "order": ["chromatic", "diatonic"], "question_num": 3, "excluded": false}, {"rt": 385.81999999587424, "stimulus": "[A] option 1, [L] option 2", "key_press": 65, "name": "choice", "trial_type": "html-keyboard-response", "trial_index": 43, "time_elapsed": 60308, "internal_node_id": "0.0-43.0", "subject": "SVGb0006", "sona": "39623", "block": 2, "time": "2021-03-09T22:45:51.047Z", "response": "1st", "certainty": "high", "char": "A", "diatonic": [5, 2, 1, 2, 1, -1, 1, -1, -2, -1, -2, -4, -2], "chromatic": [5, 2, 1, 2, -1, -2, -1, -4, -5, -4, -7, -8, -7], "unique_diatonic": 6, "unique_chromatic": 8, "necklace": [0, 2, 4, 5, 7, 8, 11], "scale": [0, 1, 3, 5, 6, 8, 9], "fragment_generic": [-1, -1, 1], "fragment_specific": [-3, -1, 1], "mode": 6, "transposition": 5, "order": ["chromatic", "diatonic"], "question_num": 4, "excluded": false}, {"rt": 1323.434999998426, "stimulus": "[A] option 1, [L] option 2", "key_press": 76, "name": "choice", "trial_type": "html-keyboard-response", "trial_index": 54, "time_elapsed": 74910, "internal_node_id": "0.0-54.0", "subject": "SVGb0006", "sona": "39623", "block": 2, "time": "2021-03-09T22:45:51.047Z", "response": "2nd", "certainty": "high", "char": "L", "diatonic": [5, 3, 1, -1, -2, -4, -5, -7, -9], "chromatic": [5, 3, 1, -1, -3, -5, -7, -9, -11], "unique_diatonic": 7, "unique_chromatic": 6, "necklace": [0, 2, 3, 5, 7, 9, 11], "scale": [0, 2, 3, 5, 6, 8, 10], "fragment_generic": [-1, -1], "fragment_specific": [-2, -2], "mode": 5, "transposition": 5, "order": ["chromatic", "diatonic"], "question_num": 5, "excluded": false}, {"rt": 1146.6650000074878, "stimulus": "[A] option 1, [L] option 2", "key_press": 65, "name": "choice", "trial_type": "html-keyboard-response", "trial_index": 65, "time_elapsed": 92521, "internal_node_id": "0.0-65.0", "subject": "SVGb0006", "sona": "39623", "block": 2, "time": "2021-03-09T22:45:51.047Z", "response": "1st", "certainty": "high", "char": "A", "diatonic": [4, 1, 4, 1, -2, 1, -2, -5, -2, -5, -9, -5, -9], "chromatic": [4, 1, 4, 1, -2, 1, -2, -5, -2, -5, -8, -5, -8], "unique_diatonic": 5, "unique_chromatic": 4, "necklace": [0, 2, 3, 5, 6, 8, 9], "scale": [0, 3, 5, 6, 8, 9, 11], "fragment_generic": [-2, 2, -2], "fragment_specific": [-3, 3, -3], "mode": 6, "transposition": 4, "order": ["chromatic", "diatonic"], "question_num": 6, "excluded": false}, {"rt": 904.9949999898672, "stimulus": "[A] option 1, [L] option 2", "key_press": 76, "name": "choice", "trial_type": "html-keyboard-response", "trial_index": 76, "time_elapsed": 109648, "internal_node_id": "0.0-76.0", "subject": "SVGb0006", "sona": "39623", "block": 2, "time": "2021-03-09T22:45:51.047Z", "response": "2nd", "certainty": "high", "char": "L", "diatonic": [6, 9, 6, 4, 7, 4, 1, 6, 1, 0, 4, 0, -2], "chromatic": [6, 9, 6, 4, 7, 4, 2, 5, 2, 0, 3, 0, -2], "unique_diatonic": 7, "unique_chromatic": 9, "necklace": [0, 2, 3, 5, 6, 8, 9], "scale": [0, 1, 3, 4, 6, 7, 10], "fragment_generic": [2, -2, -1], "fragment_specific": [3, -3, -2], "mode": 1, "transposition": 6, "order": ["diatonic", "chromatic"], "question_num": 7, "excluded": false}, {"rt": 344.10999999090564, "stimulus": "[A] option 1, [L] option 2", "key_press": 76, "name": "choice", "trial_type": "html-keyboard-response", "trial_index": 87, "time_elapsed": 126648, "internal_node_id": "0.0-87.0", "subject": "SVGb0006", "sona": "39623", "block": 2, "time": "2021-03-09T22:45:51.047Z", "response": "2nd", "certainty": "high", "char": "L", "diatonic": [4, 7, 5, 2, 5, 4, 1, 4, 2, -1, 2, 1, -3], "chromatic": [4, 7, 5, 2, 5, 3, 0, 3, 1, -2, 1, -1, -4], "unique_diatonic": 7, "unique_chromatic": 10, "necklace": [0, 2, 3, 5, 7, 9, 11], "scale": [0, 1, 3, 5, 7, 9, 10], "fragment_generic": [2, -1, -2], "fragment_specific": [3, -2, -3], "mode": 1, "transposition": 4, "order": ["diatonic", "chromatic"], "question_num": 8, "excluded": false}, {"rt": 308.38000000221655, "stimulus": "[A] option 1, [L] option 2", "key_press": 65, "name": "choice", "trial_type": "html-keyboard-response", "trial_index": 98, "time_elapsed": 143256, "internal_node_id": "0.0-98.0", "subject": "SVGb0006", "sona": "39623", "block": 2, "time": "2021-03-09T22:45:51.047Z", "response": "1st", "certainty": "high", "char": "A", "diatonic": [2, 5, 2, 1, 4, 1, -1, 2, -1, -3, 1, -3, -5], "chromatic": [2, 5, 2, 1, 4, 1, 0, 3, 0, -1, 2, -1, -2], "unique_diatonic": 7, "unique_chromatic": 8, "necklace": [0, 2, 3, 5, 7, 9, 11], "scale": [0, 2, 3, 5, 7, 9, 11], "fragment_generic": [2, -2, -1], "fragment_specific": [3, -3, -1], "mode": 0, "transposition": 2, "order": ["chromatic", "diatonic"], "question_num": 9, "excluded": false}, {"rt": 1813.3900000102585, "stimulus": "[A] option 1, [L] option 2", "key_press": 76, "name": "choice", "trial_type": "html-keyboard-response", "trial_index": 109, "time_elapsed": 161509, "internal_node_id": "0.0-109.0", "subject": "SVGb0006", "sona": "39623", "block": 2, "time": "2021-03-09T22:45:51.047Z", "response": "2nd", "certainty": "high", "char": "L", "diatonic": [0, -2, 0, -2, -4, -2, -4, -5, -4, -5, -7, -5, -7], "chromatic": [0, -2, 0, -2, -4, -2, -4, -6, -4, -6, -8, -6, -8], "unique_diatonic": 5, "unique_chromatic": 5, "necklace": [0, 2, 3, 5, 7, 9, 11], "scale": [0, 2, 4, 5, 7, 8, 10], "fragment_generic": [-1, 1, -1], "fragment_specific": [-2, 2, -2], "mode": 4, "transposition": 0, "order": ["chromatic", "diatonic"], "question_num": 10, "excluded": false}, {"rt": 298.36500000965316, "stimulus": "[A] option 1, [L] option 2", "key_press": 76, "name": "choice", "trial_type": "html-keyboard-response", "trial_index": 120, "time_elapsed": 178117, "internal_node_id": "0.0-120.0", "subject": "SVGb0006", "sona": "39623", "block": 2, "time": "2021-03-09T22:45:51.047Z", "response": "2nd", "certainty": "high", "char": "L", "diatonic": [3, -1, 3, 0, -3, 0, -1, -4, -1, -3, -6, -3, -4], "chromatic": [3, -1, 3, 0, -4, 0, -3, -7, -3, -6, -10, -6, -9], "unique_diatonic": 6, "unique_chromatic": 8, "necklace": [0, 2, 4, 5, 7, 8, 11], "scale": [0, 1, 3, 5, 6, 8, 9], "fragment_generic": [-2, 2, -1], "fragment_specific": [-4, 4, -3], "mode": 6, "transposition": 3, "order": ["diatonic", "chromatic"], "question_num": 11, "excluded": false}, {"rt": 792.5800000084564, "stimulus": "[A] option 1, [L] option 2", "key_press": 76, "name": "choice", "trial_type": "html-keyboard-response", "trial_index": 131, "time_elapsed": 192312, "internal_node_id": "0.0-131.0", "subject": "SVGb0006", "sona": "39623", "block": 2, "time": "2021-03-09T22:45:51.047Z", "response": "2nd", "certainty": "high", "char": "L", "diatonic": [2, 1, -1, -4, -5, -7, -8, -10, -11], "chromatic": [2, 1, -1, -2, -4, -5, -7, -8, -10], "unique_diatonic": 7, "unique_chromatic": 8, "necklace": [0, 2, 3, 5, 6, 8, 9], "scale": [0, 2, 3, 5, 6, 9, 11], "fragment_generic": [-1, -1], "fragment_specific": [-1, -2], "mode": 2, "transposition": 2, "order": ["diatonic", "chromatic"], "question_num": 12, "excluded": false}, {"rt": 511.2399999925401, "stimulus": "[A] option 1, [L] option 2", "key_press": 65, "name": "choice", "trial_type": "html-keyboard-response", "trial_index": 142, "time_elapsed": 209312, "internal_node_id": "0.0-142.0", "subject": "SVGb0006", "sona": "39623", "block": 2, "time": "2021-03-09T22:45:51.047Z", "response": "1st", "certainty": "high", "char": "A", "diatonic": [4, 0, 4, 2, -2, 2, 0, -4, 0, -2, -5, -2, -4], "chromatic": [4, 0, 4, 2, -2, 2, 0, -4, 0, -2, -6, -2, -4], "unique_diatonic": 6, "unique_chromatic": 6, "necklace": [0, 2, 3, 5, 7, 9, 11], "scale": [0, 1, 3, 4, 6, 8, 10], "fragment_generic": [-2, 2, -1], "fragment_specific": [-4, 4, -2], "mode": 6, "transposition": 4, "order": ["chromatic", "diatonic"], "question_num": 13, "excluded": false}, {"rt": 1384.1749999992317, "stimulus": "[A] option 1, [L] option 2", "key_press": 65, "name": "choice", "trial_type": "html-keyboard-response", "trial_index": 153, "time_elapsed": 229296, "internal_node_id": "0.0-153.0", "subject": "SVGb0006", "sona": "39623", "block": 2, "time": "2021-03-09T22:45:51.047Z", "response": "1st", "certainty": "high", "char": "A", "diatonic": [0, -3, 0, -1, -4, -1, -3, -6, -3, -4, -8, -4, -6], "chromatic": [0, -3, 0, -1, -4, -1, -2, -5, -2, -3, -6, -3, -4], "unique_diatonic": 6, "unique_chromatic": 7, "necklace": [0, 2, 4, 5, 7, 8, 11], "scale": [0, 3, 4, 6, 8, 9, 11], "fragment_generic": [-2, 2, -1], "fragment_specific": [-3, 3, -1], "mode": 5, "transposition": 0, "order": ["chromatic", "diatonic"], "question_num": 14, "excluded": false}, {"rt": 4187.9250000056345, "stimulus": "[A] option 1, [L] option 2", "key_press": 76, "name": "choice", "trial_type": "html-keyboard-response", "trial_index": 164, "time_elapsed": 246770, "internal_node_id": "0.0-164.0", "subject": "SVGb0006", "sona": "39623", "block": 2, "time": "2021-03-09T22:45:51.047Z", "response": "2nd", "certainty": "high", "char": "L", "diatonic": [1, 2, 4, 6, 7, 9, 10, 13, 14], "chromatic": [1, 2, 4, 5, 7, 8, 10, 11, 13], "unique_diatonic": 7, "unique_chromatic": 8, "necklace": [0, 2, 4, 5, 7, 8, 11], "scale": [0, 1, 3, 5, 6, 8, 9], "fragment_generic": [1, 1], "fragment_specific": [1, 2], "mode": 6, "transposition": 1, "order": ["chromatic", "diatonic"], "question_num": 15, "excluded": false}, {"rt": 521.6900000086753, "stimulus": "[A] option 1, [L] option 2", "key_press": 65, "name": "choice", "trial_type": "html-keyboard-response", "trial_index": 175, "time_elapsed": 263781, "internal_node_id": "0.0-175.0", "subject": "SVGb0006", "sona": "39623", "block": 2, "time": "2021-03-09T22:45:51.047Z", "response": "1st", "certainty": "high", "char": "A", "diatonic": [2, 6, 4, 6, 10, 8, 10, 13, 11, 13, 16, 14, 16], "chromatic": [2, 6, 4, 6, 10, 8, 10, 14, 12, 14, 18, 16, 18], "unique_diatonic": 7, "unique_chromatic": 6, "necklace": [0, 2, 3, 5, 7, 9, 11], "scale": [0, 2, 4, 6, 8, 9, 11], "fragment_generic": [2, -1, 1], "fragment_specific": [4, -2, 2], "mode": 2, "transposition": 2, "order": ["chromatic", "diatonic"], "question_num": 16, "excluded": false}, {"rt": 739.1900000075111, "stimulus": "[A] option 1, [L] option 2", "key_press": 76, "name": "choice", "trial_type": "html-keyboard-response", "trial_index": 186, "time_elapsed": 280827, "internal_node_id": "0.0-186.0", "subject": "SVGb0006", "sona": "39623", "block": 2, "time": "2021-03-09T22:45:51.047Z", "response": "2nd", "certainty": "high", "char": "L", "diatonic": [5, 7, 5, 2, 4, 2, -1, 1, -1, -5, -4, -5, -8], "chromatic": [5, 7, 5, 2, 4, 2, -1, 1, -1, -4, -2, -4, -7], "unique_diatonic": 7, "unique_chromatic": 8, "necklace": [0, 2, 3, 5, 6, 8, 9], "scale": [0, 2, 3, 6, 8, 9, 11], "fragment_generic": [1, -1, -2], "fragment_specific": [2, -2, -3], "mode": 4, "transposition": 5, "order": ["chromatic", "diatonic"], "question_num": 17, "excluded": false}, {"rt": 1257.3899999988498, "stimulus": "[A] option 1, [L] option 2", "key_press": 65, "name": "choice", "trial_type": "html-keyboard-response", "trial_index": 197, "time_elapsed": 298901, "internal_node_id": "0.0-197.0", "subject": "SVGb0006", "sona": "39623", "block": 2, "time": "2021-03-09T22:45:51.047Z", "response": "1st", "certainty": "high", "char": "A", "diatonic": [1, 5, 8, 5, 8, 11, 8, 11, 14, 11, 14, 18, 14], "chromatic": [1, 5, 8, 5, 9, 12, 9, 13, 16, 13, 17, 20, 17], "unique_diatonic": 6, "unique_chromatic": 6, "necklace": [0, 2, 4, 5, 7, 8, 11], "scale": [0, 1, 4, 5, 7, 9, 10], "fragment_generic": [2, 2, -2], "fragment_specific": [4, 3, -3], "mode": 4, "transposition": 1, "order": ["diatonic", "chromatic"], "question_num": 18, "excluded": false}, {"rt": 1562.6849999971455, "stimulus": "[A] option 1, [L] option 2", "key_press": 65, "name": "choice", "trial_type": "html-keyboard-response", "trial_index": 208, "time_elapsed": 317208, "internal_node_id": "0.0-208.0", "subject": "SVGb0006", "sona": "39623", "block": 2, "time": "2021-03-09T22:45:51.047Z", "response": "1st", "certainty": "high", "char": "A", "diatonic": [6, 5, 2, 3, 2, -1, 0, -1, -6, -3, -6, -9, -7], "chromatic": [6, 5, 2, 3, 2, -1, 0, -1, -4, -3, -4, -7, -6], "unique_diatonic": 7, "unique_chromatic": 8, "necklace": [0, 2, 3, 5, 6, 8, 9], "scale": [0, 3, 5, 6, 8, 9, 11], "fragment_generic": [-1, -2, 1], "fragment_specific": [-1, -3, 1], "mode": 6, "transposition": 6, "order": ["diatonic", "chromatic"], "question_num": 19, "excluded": false}, {"rt": 716.8749999982538, "stimulus": "[A] option 1, [L] option 2", "key_press": 76, "name": "choice", "trial_type": "html-keyboard-response", "trial_index": 219, "time_elapsed": 334213, "internal_node_id": "0.0-219.0", "subject": "SVGb0006", "sona": "39623", "block": 2, "time": "2021-03-09T22:45:51.047Z", "response": "2nd", "certainty": "high", "char": "L", "diatonic": [6, 10, 8, 5, 8, 6, 3, 6, 5, 2, 5, 3, 0], "chromatic": [6, 10, 8, 5, 9, 7, 4, 8, 6, 3, 7, 5, 2], "unique_diatonic": 7, "unique_chromatic": 9, "necklace": [0, 2, 3, 5, 7, 9, 11], "scale": [0, 2, 4, 6, 8, 9, 11], "fragment_generic": [2, -1, -2], "fragment_specific": [4, -2, -3], "mode": 2, "transposition": 6, "order": ["chromatic", "diatonic"], "question_num": 20, "excluded": false}, {"rt": 386.04500000656117, "stimulus": "[A] option 1, [L] option 2", "key_press": 65, "name": "choice", "trial_type": "html-keyboard-response", "trial_index": 230, "time_elapsed": 348087, "internal_node_id": "0.0-230.0", "subject": "SVGb0006", "sona": "39623", "block": 2, "time": "2021-03-09T22:45:51.047Z", "response": "1st", "certainty": "high", "char": "A", "diatonic": [0, -2, 1, 0, 4, 1, 6, 4, 7], "chromatic": [0, -2, 1, -1, 2, 0, 3, 1, 4], "unique_diatonic": 6, "unique_chromatic": 7, "necklace": [0, 2, 3, 5, 6, 8, 9], "scale": [0, 1, 4, 6, 7, 9, 10], "fragment_generic": [-1, 2], "fragment_specific": [-2, 3], "mode": 5, "transposition": 0, "order": ["diatonic", "chromatic"], "question_num": 21, "excluded": false}, {"rt": 213.7700000021141, "stimulus": "[A] option 1, [L] option 2", "key_press": 76, "name": "choice", "trial_type": "html-keyboard-response", "trial_index": 241, "time_elapsed": 364518, "internal_node_id": "0.0-241.0", "subject": "SVGb0006", "sona": "39623", "block": 2, "time": "2021-03-09T22:45:51.047Z", "response": "2nd", "certainty": "high", "char": "L", "diatonic": [6, 8, 5, 3, 5, 2, 0, 2, -3, -4, -3, -6, -7], "chromatic": [6, 8, 5, 3, 5, 2, 0, 2, -1, -3, -1, -4, -6], "unique_diatonic": 7, "unique_chromatic": 8, "necklace": [0, 2, 3, 5, 6, 8, 9], "scale": [0, 2, 3, 6, 8, 9, 11], "fragment_generic": [1, -2, -1], "fragment_specific": [2, -3, -2], "mode": 4, "transposition": 6, "order": ["chromatic", "diatonic"], "question_num": 22, "excluded": false}, {"rt": 891.0000000032596, "stimulus": "[A] option 1, [L] option 2", "key_press": 65, "name": "choice", "trial_type": "html-keyboard-response", "trial_index": 252, "time_elapsed": 382007, "internal_node_id": "0.0-252.0", "subject": "SVGb0006", "sona": "39623", "block": 2, "time": "2021-03-09T22:45:51.047Z", "response": "1st", "certainty": "high", "char": "A", "diatonic": [1, 5, 8, 5, 8, 12, 8, 12, 15, 12, 15, 18, 15], "chromatic": [1, 5, 8, 5, 9, 12, 9, 13, 16, 13, 17, 20, 17], "unique_diatonic": 6, "unique_chromatic": 6, "necklace": [0, 2, 4, 5, 7, 8, 11], "scale": [0, 2, 4, 5, 7, 8, 11], "fragment_generic": [2, 2, -2], "fragment_specific": [4, 3, -3], "mode": 0, "transposition": 1, "order": ["diatonic", "chromatic"], "question_num": 23, "excluded": false}, {"rt": 994.1099999996368, "stimulus": "[A] option 1, [L] option 2", "key_press": 76, "name": "choice", "trial_type": "html-keyboard-response", "trial_index": 263, "time_elapsed": 399577, "internal_node_id": "0.0-263.0", "subject": "SVGb0006", "sona": "39623", "block": 2, "time": "2021-03-09T22:45:51.047Z", "response": "2nd", "certainty": "high", "char": "L", "diatonic": [2, 5, 4, 1, 4, 2, -1, 2, 1, -4, 1, -1, -5], "chromatic": [2, 5, 4, 1, 4, 3, 0, 3, 2, -1, 2, 1, -2], "unique_diatonic": 7, "unique_chromatic": 8, "necklace": [0, 2, 3, 5, 6, 8, 9], "scale": [0, 2, 3, 5, 6, 9, 11], "fragment_generic": [2, -1, -2], "fragment_specific": [3, -1, -3], "mode": 2, "transposition": 2, "order": ["diatonic", "chromatic"], "question_num": 24, "excluded": false}, {"rt": 681.9699999905424, "stimulus": "[A] option 1, [L] option 2", "key_press": 65, "name": "choice", "trial_type": "html-keyboard-response", "trial_index": 274, "time_elapsed": 416553, "internal_node_id": "0.0-274.0", "subject": "SVGb0006", "sona": "39623", "block": 2, "time": "2021-03-09T22:45:51.047Z", "response": "1st", "certainty": "high", "char": "A", "diatonic": [3, 2, 3, 7, 6, 7, 11, 9, 11, 14, 12, 14, 18], "chromatic": [3, 2, 3, 7, 6, 7, 11, 10, 11, 15, 14, 15, 19], "unique_diatonic": 7, "unique_chromatic": 6, "necklace": [0, 2, 4, 5, 7, 8, 11], "scale": [0, 3, 4, 6, 8, 9, 11], "fragment_generic": [-1, 1, 2], "fragment_specific": [-1, 1, 4], "mode": 5, "transposition": 3, "order": ["chromatic", "diatonic"], "question_num": 25, "excluded": false}, {"rt": 864.2600000021048, "stimulus": "[A] option 1, [L] option 2", "key_press": 65, "name": "choice", "trial_type": "html-keyboard-response", "trial_index": 285, "time_elapsed": 430859, "internal_node_id": "0.0-285.0", "subject": "SVGb0006", "sona": "39623", "block": 2, "time": "2021-03-09T22:45:51.047Z", "response": "1st", "certainty": "high", "char": "A", "diatonic": [6, 4, 2, 0, -2, -3, -5, -6, -8], "chromatic": [6, 4, 2, 0, -2, -4, -6, -8, -10], "unique_diatonic": 7, "unique_chromatic": 6, "necklace": [0, 2, 3, 5, 7, 9, 11], "scale": [0, 1, 3, 4, 6, 8, 10], "fragment_generic": [-1, -1], "fragment_specific": [-2, -2], "mode": 6, "transposition": 6, "order": ["chromatic", "diatonic"], "question_num": 26, "excluded": false}, {"rt": 272.90999999968335, "stimulus": "[A] option 1, [L] option 2", "key_press": 65, "name": "choice", "trial_type": "html-keyboard-response", "trial_index": 296, "time_elapsed": 447776, "internal_node_id": "0.0-296.0", "subject": "SVGb0006", "sona": "39623", "block": 2, "time": "2021-03-09T22:45:51.047Z", "response": "1st", "certainty": "high", "char": "A", "diatonic": [3, 1, 0, 1, 0, -2, 0, -2, -4, -2, -4, -5, -4], "chromatic": [3, 1, 0, 1, -1, -2, -1, -3, -4, -3, -5, -6, -5], "unique_diatonic": 6, "unique_chromatic": 9, "necklace": [0, 2, 4, 5, 7, 8, 11], "scale": [0, 1, 4, 5, 7, 9, 10], "fragment_generic": [-1, -1, 1], "fragment_specific": [-2, -1, 1], "mode": 4, "transposition": 3, "order": ["diatonic", "chromatic"], "question_num": 27, "excluded": false}, {"rt": 1509.715000007418, "stimulus": "[A] option 1, [L] option 2", "key_press": 76, "name": "choice", "trial_type": "html-keyboard-response", "trial_index": 307, "time_elapsed": 465523, "internal_node_id": "0.0-307.0", "subject": "SVGb0006", "sona": "39623", "block": 2, "time": "2021-03-09T22:45:51.047Z", "response": "2nd", "certainty": "high", "char": "L", "diatonic": [2, 5, 3, 5, 9, 7, 9, 12, 11, 12, 15, 14, 15], "chromatic": [2, 5, 3, 5, 8, 6, 8, 11, 9, 11, 14, 12, 14], "unique_diatonic": 7, "unique_chromatic": 8, "necklace": [0, 2, 3, 5, 7, 9, 11], "scale": [0, 1, 3, 5, 7, 9, 10], "fragment_generic": [2, -1, 1], "fragment_specific": [3, -2, 2], "mode": 1, "transposition": 2, "order": ["diatonic", "chromatic"], "question_num": 28, "excluded": false}, {"rt": 128501.44999999623, "stimulus": "[A] option 1, [L] option 2", "key_press": 76, "name": "choice", "trial_type": "html-keyboard-response", "trial_index": 318, "time_elapsed": 743662, "internal_node_id": "0.0-318.0", "subject": "SVGb0006", "sona": "39623", "block": 2, "time": "2021-03-09T22:45:51.047Z", "response": "2nd", "certainty": "high", "char": "L", "diatonic": [3, 1, 3, 7, 4, 7, 10, 8, 10, 13, 12, 13, 16], "chromatic": [3, 1, 3, 7, 5, 7, 11, 9, 11, 15, 13, 15, 19], "unique_diatonic": 7, "unique_chromatic": 6, "necklace": [0, 2, 4, 5, 7, 8, 11], "scale": [0, 1, 4, 5, 7, 9, 10], "fragment_generic": [-1, 1, 2], "fragment_specific": [-2, 2, 4], "mode": 4, "transposition": 3, "order": ["diatonic", "chromatic"], "question_num": 29, "excluded": false}, {"rt": 628.0899999982212, "stimulus": "[A] option 1, [L] option 2", "key_press": 65, "name": "choice", "trial_type": "html-keyboard-response", "trial_index": 329, "time_elapsed": 760833, "internal_node_id": "0.0-329.0", "subject": "SVGb0006", "sona": "39623", "block": 2, "time": "2021-03-09T22:45:51.047Z", "response": "1st", "certainty": "high", "char": "A", "diatonic": [0, -3, 0, 3, 0, 3, 6, 3, 6, 10, 6, 10, 14], "chromatic": [0, -3, 0, 3, 0, 3, 6, 3, 6, 9, 6, 9, 12], "unique_diatonic": 6, "unique_chromatic": 4, "necklace": [0, 2, 4, 5, 7, 8, 11], "scale": [0, 2, 3, 5, 6, 9, 10], "fragment_generic": [-2, 2, 2], "fragment_specific": [-3, 3, 3], "mode": 1, "transposition": 0, "order": ["chromatic", "diatonic"], "question_num": 30, "excluded": false}]}, {"dir": "./data/SVGb0006/csv/SVGb0006_block_3.json", "block": 3, "repetition": [{"rt": 474.1649999925867, "stimulus": "[A] option 1, [L] option 2", "key_press": 65, "name": "choice", "trial_type": "html-keyboard-response", "trial_index": 10, "time_elapsed": 13578, "internal_node_id": "0.0-10.0", "subject": "SVGb0006", "sona": "39623", "block": 3, "time": "2021-03-09T22:53:59.584Z", "response": "1st", "certainty": "high", "char": "A", "diatonic": [6, 4, 2, 1, -2, -3, -5, -6, -8], "chromatic": [6, 4, 2, 0, -2, -4, -6, -8, -10], "unique_diatonic": 7, "unique_chromatic": 6, "necklace": [0, 2, 4, 5, 7, 8, 11], "scale": [0, 1, 3, 4, 7, 8, 10], "fragment_generic": [-1, -1], "fragment_specific": [-2, -2], "mode": 2, "transposition": 6, "order": ["chromatic", "diatonic"], "question_num": 1, "excluded": false}, {"rt": 274.95000000623986, "stimulus": "[A] option 1, [L] option 2", "key_press": 76, "name": "choice", "trial_type": "html-keyboard-response", "trial_index": 21, "time_elapsed": 30126, "internal_node_id": "0.0-21.0", "subject": "SVGb0006", "sona": "39623", "block": 3, "time": "2021-03-09T22:53:59.584Z", "response": "2nd", "certainty": "high", "char": "L", "diatonic": [5, 7, 3, 1, 3, -1, -2, -1, -4, -5, -4, -7, -9], "chromatic": [5, 7, 3, 1, 3, -1, -3, -1, -5, -7, -5, -9, -11], "unique_diatonic": 7, "unique_chromatic": 6, "necklace": [0, 2, 3, 5, 7, 9, 11], "scale": [0, 2, 3, 5, 6, 8, 10], "fragment_generic": [1, -2, -1], "fragment_specific": [2, -4, -2], "mode": 5, "transposition": 5, "order": ["chromatic", "diatonic"], "question_num": 2, "excluded": false}, {"rt": 519.0500000026077, "stimulus": "[A] option 1, [L] option 2", "key_press": 65, "name": "choice", "trial_type": "html-keyboard-response", "trial_index": 32, "time_elapsed": 46939, "internal_node_id": "0.0-32.0", "subject": "SVGb0006", "sona": "39623", "block": 3, "time": "2021-03-09T22:53:59.584Z", "response": "1st", "certainty": "high", "char": "A", "diatonic": [4, 2, -1, 1, -1, -5, -4, -5, -8, -7, -8, -11, -10], "chromatic": [4, 2, -1, 1, -1, -4, -2, -4, -7, -5, -7, -10, -8], "unique_diatonic": 7, "unique_chromatic": 8, "necklace": [0, 2, 3, 5, 6, 8, 9], "scale": [0, 1, 3, 4, 7, 9, 10], "fragment_generic": [-1, -2, 1], "fragment_specific": [-2, -3, 2], "mode": 3, "transposition": 4, "order": ["chromatic", "diatonic"], "question_num": 3, "excluded": false}, {"rt": 749.4699999953154, "stimulus": "[A] option 1, [L] option 2", "key_press": 65, "name": "choice", "trial_type": "html-keyboard-response", "trial_index": 43, "time_elapsed": 61177, "internal_node_id": "0.0-43.0", "subject": "SVGb0006", "sona": "39623", "block": 3, "time": "2021-03-09T22:53:59.584Z", "response": "1st", "certainty": "high", "char": "A", "diatonic": [2, 4, 1, 2, -1, 1, -3, -1, -4], "chromatic": [2, 4, 1, 3, 0, 2, -1, 1, -2], "unique_diatonic": 6, "unique_chromatic": 7, "necklace": [0, 2, 4, 5, 7, 8, 11], "scale": [0, 2, 3, 6, 7, 9, 11], "fragment_generic": [1, -2], "fragment_specific": [2, -3], "mode": 3, "transposition": 2, "order": ["chromatic", "diatonic"], "question_num": 4, "excluded": false}, {"rt": 282.2449999949895, "stimulus": "[A] option 1, [L] option 2", "key_press": 76, "name": "choice", "trial_type": "html-keyboard-response", "trial_index": 54, "time_elapsed": 77835, "internal_node_id": "0.0-54.0", "subject": "SVGb0006", "sona": "39623", "block": 3, "time": "2021-03-09T22:53:59.584Z", "response": "2nd", "certainty": "high", "char": "L", "diatonic": [2, 4, 7, 4, 5, 8, 5, 7, 11, 7, 8, 13, 8], "chromatic": [2, 4, 7, 4, 6, 9, 6, 8, 11, 8, 10, 13, 10], "unique_diatonic": 7, "unique_chromatic": 9, "necklace": [0, 2, 3, 5, 6, 8, 9], "scale": [0, 2, 3, 5, 6, 9, 11], "fragment_generic": [1, 2, -2], "fragment_specific": [2, 3, -3], "mode": 2, "transposition": 2, "order": ["diatonic", "chromatic"], "question_num": 5, "excluded": false}, {"rt": 344.5700000009965, "stimulus": "[A] option 1, [L] option 2", "key_press": 76, "name": "choice", "trial_type": "html-keyboard-response", "trial_index": 65, "time_elapsed": 91696, "internal_node_id": "0.0-65.0", "subject": "SVGb0006", "sona": "39623", "block": 3, "time": "2021-03-09T22:53:59.584Z", "response": "2nd", "certainty": "high", "char": "L", "diatonic": [6, 2, 3, 0, 2, -1, 0, -3, -1], "chromatic": [6, 2, 3, -1, 0, -4, -3, -7, -6], "unique_diatonic": 6, "unique_chromatic": 8, "necklace": [0, 2, 4, 5, 7, 8, 11], "scale": [0, 1, 3, 5, 6, 8, 9], "fragment_generic": [-2, 1], "fragment_specific": [-4, 1], "mode": 6, "transposition": 6, "order": ["diatonic", "chromatic"], "question_num": 6, "excluded": false}, {"rt": 680.5800000000745, "stimulus": "[A] option 1, [L] option 2", "key_press": 76, "name": "choice", "trial_type": "html-keyboard-response", "trial_index": 76, "time_elapsed": 108693, "internal_node_id": "0.0-76.0", "subject": "SVGb0006", "sona": "39623", "block": 3, "time": "2021-03-09T22:53:59.584Z", "response": "2nd", "certainty": "high", "char": "L", "diatonic": [6, 11, 6, 5, 9, 5, 3, 6, 3, 2, 5, 2, 0], "chromatic": [6, 11, 6, 5, 10, 5, 4, 9, 4, 3, 8, 3, 2], "unique_diatonic": 7, "unique_chromatic": 9, "necklace": [0, 2, 3, 5, 6, 8, 9], "scale": [0, 3, 5, 6, 8, 9, 11], "fragment_generic": [2, -2, -1], "fragment_specific": [5, -5, -1], "mode": 6, "transposition": 6, "order": ["diatonic", "chromatic"], "question_num": 7, "excluded": false}, {"rt": 367.4949999987148, "stimulus": "[A] option 1, [L] option 2", "key_press": 76, "name": "choice", "trial_type": "html-keyboard-response", "trial_index": 87, "time_elapsed": 125586, "internal_node_id": "0.0-87.0", "subject": "SVGb0006", "sona": "39623", "block": 3, "time": "2021-03-09T22:53:59.584Z", "response": "2nd", "certainty": "high", "char": "L", "diatonic": [2, 1, -1, 1, -1, -3, -1, -3, -4, -3, -4, -7, -4], "chromatic": [2, 1, -1, 1, 0, -2, 0, -1, -3, -1, -2, -4, -2], "unique_diatonic": 6, "unique_chromatic": 7, "necklace": [0, 2, 4, 5, 7, 8, 11], "scale": [0, 2, 3, 6, 7, 9, 11], "fragment_generic": [-1, -1, 1], "fragment_specific": [-1, -2, 2], "mode": 3, "transposition": 2, "order": ["chromatic", "diatonic"], "question_num": 8, "excluded": false}, {"rt": 577.3700000136159, "stimulus": "[A] option 1, [L] option 2", "key_press": 65, "name": "choice", "trial_type": "html-keyboard-response", "trial_index": 98, "time_elapsed": 139531, "internal_node_id": "0.0-98.0", "subject": "SVGb0006", "sona": "39623", "block": 3, "time": "2021-03-09T22:53:59.584Z", "response": "1st", "certainty": "high", "char": "A", "diatonic": [6, 4, 3, 1, 0, -2, -5, -6, -8], "chromatic": [6, 4, 3, 1, 0, -2, -3, -5, -6], "unique_diatonic": 7, "unique_chromatic": 8, "necklace": [0, 2, 3, 5, 6, 8, 9], "scale": [0, 1, 4, 6, 7, 9, 10], "fragment_generic": [-1, -1], "fragment_specific": [-2, -1], "mode": 5, "transposition": 6, "order": ["diatonic", "chromatic"], "question_num": 9, "excluded": false}, {"rt": 460.31500000390224, "stimulus": "[A] option 1, [L] option 2", "key_press": 76, "name": "choice", "trial_type": "html-keyboard-response", "trial_index": 109, "time_elapsed": 156220, "internal_node_id": "0.0-109.0", "subject": "SVGb0006", "sona": "39623", "block": 3, "time": "2021-03-09T22:53:59.584Z", "response": "2nd", "certainty": "high", "char": "L", "diatonic": [4, 1, 4, 8, 4, 8, 11, 8, 11, 14, 11, 14, 17], "chromatic": [4, 1, 4, 8, 5, 8, 12, 9, 12, 16, 13, 16, 20], "unique_diatonic": 6, "unique_chromatic": 6, "necklace": [0, 2, 4, 5, 7, 8, 11], "scale": [0, 1, 4, 5, 7, 9, 10], "fragment_generic": [-2, 2, 2], "fragment_specific": [-3, 3, 4], "mode": 4, "transposition": 4, "order": ["diatonic", "chromatic"], "question_num": 10, "excluded": false}, {"rt": 457.7900000005029, "stimulus": "[A] option 1, [L] option 2", "key_press": 65, "name": "choice", "trial_type": "html-keyboard-response", "trial_index": 120, "time_elapsed": 170168, "internal_node_id": "0.0-120.0", "subject": "SVGb0006", "sona": "39623", "block": 3, "time": "2021-03-09T22:53:59.584Z", "response": "1st", "certainty": "high", "char": "A", "diatonic": [1, -4, -1, -5, -4, -7, -5, -8, -7], "chromatic": [1, -4, -1, -6, -3, -8, -5, -10, -7], "unique_diatonic": 6, "unique_chromatic": 9, "necklace": [0, 2, 3, 5, 6, 8, 9], "scale": [0, 1, 3, 4, 6, 7, 10], "fragment_generic": [-2, 1], "fragment_specific": [-5, 3], "mode": 1, "transposition": 1, "order": ["diatonic", "chromatic"], "question_num": 11, "excluded": false}, {"rt": 576.5150000078138, "stimulus": "[A] option 1, [L] option 2", "key_press": 65, "name": "choice", "trial_type": "html-keyboard-response", "trial_index": 131, "time_elapsed": 187365, "internal_node_id": "0.0-131.0", "subject": "SVGb0006", "sona": "39623", "block": 3, "time": "2021-03-09T22:53:59.584Z", "response": "1st", "certainty": "high", "char": "A", "diatonic": [5, 6, 3, 2, 3, 0, -1, 0, -3, -6, -3, -7, -9], "chromatic": [5, 6, 3, 2, 3, 0, -1, 0, -3, -4, -3, -6, -7], "unique_diatonic": 7, "unique_chromatic": 8, "necklace": [0, 2, 3, 5, 6, 8, 9], "scale": [0, 1, 4, 6, 7, 9, 10], "fragment_generic": [1, -2, -1], "fragment_specific": [1, -3, -1], "mode": 5, "transposition": 5, "order": ["diatonic", "chromatic"], "question_num": 12, "excluded": false}, {"rt": 332.7900000002701, "stimulus": "[A] option 1, [L] option 2", "key_press": 76, "name": "choice", "trial_type": "html-keyboard-response", "trial_index": 142, "time_elapsed": 204130, "internal_node_id": "0.0-142.0", "subject": "SVGb0006", "sona": "39623", "block": 3, "time": "2021-03-09T22:53:59.584Z", "response": "2nd", "certainty": "high", "char": "L", "diatonic": [5, 7, 5, 2, 4, 2, -2, -1, -2, -5, -4, -5, -8], "chromatic": [5, 7, 5, 2, 4, 2, -1, 1, -1, -4, -2, -4, -7], "unique_diatonic": 7, "unique_chromatic": 8, "necklace": [0, 2, 3, 5, 6, 8, 9], "scale": [0, 2, 3, 5, 6, 9, 11], "fragment_generic": [1, -1, -2], "fragment_specific": [2, -2, -3], "mode": 2, "transposition": 5, "order": ["chromatic", "diatonic"], "question_num": 13, "excluded": false}, {"rt": 310.88000000454485, "stimulus": "[A] option 1, [L] option 2", "key_press": 76, "name": "choice", "trial_type": "html-keyboard-response", "trial_index": 153, "time_elapsed": 220467, "internal_node_id": "0.0-153.0", "subject": "SVGb0006", "sona": "39623", "block": 3, "time": "2021-03-09T22:53:59.584Z", "response": "2nd", "certainty": "high", "char": "L", "diatonic": [2, 5, 2, -1, 2, -1, -5, -1, -5, -8, -5, -8, -11], "chromatic": [2, 5, 2, -1, 2, -1, -4, -1, -4, -7, -4, -7, -10], "unique_diatonic": 6, "unique_chromatic": 4, "necklace": [0, 2, 3, 5, 7, 9, 11], "scale": [0, 2, 3, 5, 7, 9, 11], "fragment_generic": [2, -2, -2], "fragment_specific": [3, -3, -3], "mode": 0, "transposition": 2, "order": ["diatonic", "chromatic"], "question_num": 14, "excluded": false}, {"rt": 273.6049999948591, "stimulus": "[A] option 1, [L] option 2", "key_press": 65, "name": "choice", "trial_type": "html-keyboard-response", "trial_index": 164, "time_elapsed": 237074, "internal_node_id": "0.0-164.0", "subject": "SVGb0006", "sona": "39623", "block": 3, "time": "2021-03-09T22:53:59.584Z", "response": "1st", "certainty": "high", "char": "A", "diatonic": [1, 2, 1, 2, 4, 2, 4, 5, 4, 5, 7, 5, 7], "chromatic": [1, 2, 1, 2, 3, 2, 3, 4, 3, 4, 5, 4, 5], "unique_diatonic": 5, "unique_chromatic": 5, "necklace": [0, 2, 3, 5, 7, 9, 11], "scale": [0, 1, 3, 4, 6, 8, 10], "fragment_generic": [1, -1, 1], "fragment_specific": [1, -1, 1], "mode": 6, "transposition": 1, "order": ["chromatic", "diatonic"], "question_num": 15, "excluded": false}, {"rt": 409.10999999335036, "stimulus": "[A] option 1, [L] option 2", "key_press": 76, "name": "choice", "trial_type": "html-keyboard-response", "trial_index": 175, "time_elapsed": 253969, "internal_node_id": "0.0-175.0", "subject": "SVGb0006", "sona": "39623", "block": 3, "time": "2021-03-09T22:53:59.584Z", "response": "2nd", "certainty": "high", "char": "L", "diatonic": [2, 1, 2, 5, 4, 5, 9, 8, 9, 13, 11, 13, 16], "chromatic": [2, 1, 2, 5, 4, 5, 8, 7, 8, 11, 10, 11, 14], "unique_diatonic": 7, "unique_chromatic": 8, "necklace": [0, 2, 4, 5, 7, 8, 11], "scale": [0, 2, 3, 6, 7, 9, 11], "fragment_generic": [-1, 1, 2], "fragment_specific": [-1, 1, 3], "mode": 3, "transposition": 2, "order": ["diatonic", "chromatic"], "question_num": 16, "excluded": false}, {"rt": 187.34500001301058, "stimulus": "[A] option 1, [L] option 2", "key_press": 65, "name": "choice", "trial_type": "html-keyboard-response", "trial_index": 186, "time_elapsed": 270338, "internal_node_id": "0.0-186.0", "subject": "SVGb0006", "sona": "39623", "block": 3, "time": "2021-03-09T22:53:59.584Z", "response": "1st", "certainty": "high", "char": "A", "diatonic": [2, -2, 2, 0, -3, 0, -2, -6, -2, -3, -7, -3, -6], "chromatic": [2, -2, 2, 0, -4, 0, -2, -6, -2, -4, -8, -4, -6], "unique_diatonic": 6, "unique_chromatic": 6, "necklace": [0, 2, 4, 5, 7, 8, 11], "scale": [0, 1, 3, 4, 7, 8, 10], "fragment_generic": [-2, 2, -1], "fragment_specific": [-4, 4, -2], "mode": 2, "transposition": 2, "order": ["diatonic", "chromatic"], "question_num": 17, "excluded": false}, {"rt": 445.4600000025239, "stimulus": "[A] option 1, [L] option 2", "key_press": 65, "name": "choice", "trial_type": "html-keyboard-response", "trial_index": 197, "time_elapsed": 286944, "internal_node_id": "0.0-197.0", "subject": "SVGb0006", "sona": "39623", "block": 3, "time": "2021-03-09T22:53:59.584Z", "response": "1st", "certainty": "high", "char": "A", "diatonic": [2, 1, -1, 1, -1, -2, -1, -2, -4, -2, -4, -6, -4], "chromatic": [2, 1, -1, 1, 0, -2, 0, -1, -3, -1, -2, -4, -2], "unique_diatonic": 6, "unique_chromatic": 7, "necklace": [0, 2, 4, 5, 7, 8, 11], "scale": [0, 3, 4, 6, 8, 9, 11], "fragment_generic": [-1, -1, 1], "fragment_specific": [-1, -2, 2], "mode": 5, "transposition": 2, "order": ["chromatic", "diatonic"], "question_num": 18, "excluded": false}, {"rt": 562.9049999988638, "stimulus": "[A] option 1, [L] option 2", "key_press": 65, "name": "choice", "trial_type": "html-keyboard-response", "trial_index": 208, "time_elapsed": 303780, "internal_node_id": "0.0-208.0", "subject": "SVGb0006", "sona": "39623", "block": 3, "time": "2021-03-09T22:53:59.584Z", "response": "1st", "certainty": "high", "char": "A", "diatonic": [0, -2, 0, 3, 2, 3, 6, 5, 6, 10, 9, 10, 14], "chromatic": [0, -2, 0, 3, 1, 3, 6, 4, 6, 9, 7, 9, 12], "unique_diatonic": 7, "unique_chromatic": 8, "necklace": [0, 2, 4, 5, 7, 8, 11], "scale": [0, 2, 3, 5, 6, 9, 10], "fragment_generic": [-1, 1, 2], "fragment_specific": [-2, 2, 3], "mode": 1, "transposition": 0, "order": ["chromatic", "diatonic"], "question_num": 19, "excluded": false}, {"rt": 434.78999999933876, "stimulus": "[A] option 1, [L] option 2", "key_press": 76, "name": "choice", "trial_type": "html-keyboard-response", "trial_index": 219, "time_elapsed": 317549, "internal_node_id": "0.0-219.0", "subject": "SVGb0006", "sona": "39623", "block": 3, "time": "2021-03-09T22:53:59.584Z", "response": "2nd", "certainty": "high", "char": "L", "diatonic": [2, -1, 3, 2, 5, 3, 7, 5, 8], "chromatic": [2, -1, 3, 0, 4, 1, 5, 2, 6], "unique_diatonic": 6, "unique_chromatic": 8, "necklace": [0, 2, 4, 5, 7, 8, 11], "scale": [0, 1, 3, 5, 6, 8, 9], "fragment_generic": [-1, 2], "fragment_specific": [-3, 4], "mode": 6, "transposition": 2, "order": ["diatonic", "chromatic"], "question_num": 20, "excluded": false}, {"rt": 587.8700000031386, "stimulus": "[A] option 1, [L] option 2", "key_press": 76, "name": "choice", "trial_type": "html-keyboard-response", "trial_index": 230, "time_elapsed": 331641, "internal_node_id": "0.0-230.0", "subject": "SVGb0006", "sona": "39623", "block": 3, "time": "2021-03-09T22:53:59.584Z", "response": "2nd", "certainty": "high", "char": "L", "diatonic": [2, -1, 1, -2, -1, -4, -2, -5, -4], "chromatic": [2, -1, 1, -2, 0, -3, -1, -4, -2], "unique_diatonic": 6, "unique_chromatic": 7, "necklace": [0, 2, 3, 5, 6, 8, 9], "scale": [0, 3, 5, 6, 8, 9, 11], "fragment_generic": [-2, 1], "fragment_specific": [-3, 2], "mode": 6, "transposition": 2, "order": ["chromatic", "diatonic"], "question_num": 21, "excluded": false}, {"rt": 249.15500001236796, "stimulus": "[A] option 1, [L] option 2", "key_press": 65, "name": "choice", "trial_type": "html-keyboard-response", "trial_index": 241, "time_elapsed": 345873, "internal_node_id": "0.0-241.0", "subject": "SVGb0006", "sona": "39623", "block": 3, "time": "2021-03-09T22:53:59.584Z", "response": "1st", "certainty": "high", "char": "A", "diatonic": [3, 2, 5, 3, 6, 5, 9, 6, 10], "chromatic": [3, 2, 5, 4, 7, 6, 9, 8, 11], "unique_diatonic": 6, "unique_chromatic": 9, "necklace": [0, 2, 4, 5, 7, 8, 11], "scale": [0, 2, 3, 6, 7, 9, 11], "fragment_generic": [-1, 2], "fragment_specific": [-1, 3], "mode": 3, "transposition": 3, "order": ["diatonic", "chromatic"], "question_num": 22, "excluded": false}, {"rt": 339.76000000257045, "stimulus": "[A] option 1, [L] option 2", "key_press": 76, "name": "choice", "trial_type": "html-keyboard-response", "trial_index": 252, "time_elapsed": 359925, "internal_node_id": "0.0-252.0", "subject": "SVGb0006", "sona": "39623", "block": 3, "time": "2021-03-09T22:53:59.584Z", "response": "2nd", "certainty": "high", "char": "L", "diatonic": [3, 6, 2, 3, 0, 2, -1, 0, -3], "chromatic": [3, 6, 2, 5, 1, 4, 0, 3, -1], "unique_diatonic": 6, "unique_chromatic": 8, "necklace": [0, 2, 4, 5, 7, 8, 11], "scale": [0, 3, 4, 6, 8, 9, 11], "fragment_generic": [1, -2], "fragment_specific": [3, -4], "mode": 5, "transposition": 3, "order": ["diatonic", "chromatic"], "question_num": 23, "excluded": false}, {"rt": 499.99499999103136, "stimulus": "[A] option 1, [L] option 2", "key_press": 76, "name": "choice", "trial_type": "html-keyboard-response", "trial_index": 263, "time_elapsed": 376746, "internal_node_id": "0.0-263.0", "subject": "SVGb0006", "sona": "39623", "block": 3, "time": "2021-03-09T22:53:59.584Z", "response": "2nd", "certainty": "high", "char": "L", "diatonic": [5, 7, 3, 1, 3, 0, -2, 0, -3, -5, -3, -7, -9], "chromatic": [5, 7, 3, 1, 3, -1, -3, -1, -5, -7, -5, -9, -11], "unique_diatonic": 7, "unique_chromatic": 6, "necklace": [0, 2, 3, 5, 7, 9, 11], "scale": [0, 2, 4, 5, 7, 8, 10], "fragment_generic": [1, -2, -1], "fragment_specific": [2, -4, -2], "mode": 4, "transposition": 5, "order": ["chromatic", "diatonic"], "question_num": 24, "excluded": false}, {"rt": 267.02499999362044, "stimulus": "[A] option 1, [L] option 2", "key_press": 76, "name": "choice", "trial_type": "html-keyboard-response", "trial_index": 274, "time_elapsed": 390341, "internal_node_id": "0.0-274.0", "subject": "SVGb0006", "sona": "39623", "block": 3, "time": "2021-03-09T22:53:59.584Z", "response": "2nd", "certainty": "high", "char": "L", "diatonic": [5, 2, 3, 0, 2, -2, 0, -3, -2], "chromatic": [5, 2, 3, 0, 1, -2, -1, -4, -3], "unique_diatonic": 6, "unique_chromatic": 9, "necklace": [0, 2, 4, 5, 7, 8, 11], "scale": [0, 1, 4, 5, 7, 9, 10], "fragment_generic": [-2, 1], "fragment_specific": [-3, 1], "mode": 4, "transposition": 5, "order": ["diatonic", "chromatic"], "question_num": 25, "excluded": false}, {"rt": 911.164999997709, "stimulus": "[A] option 1, [L] option 2", "key_press": 65, "name": "choice", "trial_type": "html-keyboard-response", "trial_index": 285, "time_elapsed": 407629, "internal_node_id": "0.0-285.0", "subject": "SVGb0006", "sona": "39623", "block": 3, "time": "2021-03-09T22:53:59.584Z", "response": "1st", "certainty": "high", "char": "A", "diatonic": [3, 8, 6, 2, 6, 3, 0, 3, 2, -1, 2, 0, -3], "chromatic": [3, 8, 6, 2, 7, 5, 1, 6, 4, 0, 5, 3, -1], "unique_diatonic": 7, "unique_chromatic": 10, "necklace": [0, 2, 3, 5, 6, 8, 9], "scale": [0, 3, 5, 6, 8, 9, 11], "fragment_generic": [2, -1, -2], "fragment_specific": [5, -2, -4], "mode": 6, "transposition": 3, "order": ["diatonic", "chromatic"], "question_num": 26, "excluded": false}, {"rt": 1196.869999999879, "stimulus": "[A] option 1, [L] option 2", "key_press": 76, "name": "choice", "trial_type": "html-keyboard-response", "trial_index": 296, "time_elapsed": 422729, "internal_node_id": "0.0-296.0", "subject": "SVGb0006", "sona": "39623", "block": 3, "time": "2021-03-09T22:53:59.584Z", "response": "2nd", "certainty": "high", "char": "L", "diatonic": [6, 3, 2, 0, -1, -3, -4, -6, -9], "chromatic": [6, 3, 2, -1, -2, -5, -6, -9, -10], "unique_diatonic": 7, "unique_chromatic": 6, "necklace": [0, 2, 3, 5, 6, 8, 9], "scale": [0, 2, 3, 5, 6, 8, 9], "fragment_generic": [-1, -1], "fragment_specific": [-3, -1], "mode": 0, "transposition": 6, "order": ["diatonic", "chromatic"], "question_num": 27, "excluded": false}, {"rt": 2397.6649999967776, "stimulus": "[A] option 1, [L] option 2", "key_press": 76, "name": "choice", "trial_type": "html-keyboard-response", "trial_index": 307, "time_elapsed": 444160, "internal_node_id": "0.0-307.0", "subject": "SVGb0006", "sona": "39623", "block": 3, "time": "2021-03-09T22:53:59.584Z", "response": "2nd", "certainty": "high", "char": "L", "diatonic": [3, 6, 4, 6, 9, 7, 9, 13, 11, 13, 16, 15, 16], "chromatic": [3, 6, 4, 6, 9, 7, 9, 12, 10, 12, 15, 13, 15], "unique_diatonic": 7, "unique_chromatic": 8, "necklace": [0, 2, 3, 5, 7, 9, 11], "scale": [0, 1, 3, 4, 6, 8, 10], "fragment_generic": [2, -1, 1], "fragment_specific": [3, -2, 2], "mode": 6, "transposition": 3, "order": ["chromatic", "diatonic"], "question_num": 28, "excluded": false}, {"rt": 1743.0750000057742, "stimulus": "[A] option 1, [L] option 2", "key_press": 76, "name": "choice", "trial_type": "html-keyboard-response", "trial_index": 318, "time_elapsed": 469612, "internal_node_id": "0.0-318.0", "subject": "SVGb0006", "sona": "39623", "block": 3, "time": "2021-03-09T22:53:59.584Z", "response": "2nd", "certainty": "high", "char": "L", "diatonic": [3, 0, 3, 0, -5, 0, -5, -8, -5, -8, -11, -8, -11], "chromatic": [3, 0, 3, 0, -3, 0, -3, -6, -3, -6, -9, -6, -9], "unique_diatonic": 5, "unique_chromatic": 4, "necklace": [0, 2, 3, 5, 6, 8, 9], "scale": [0, 1, 3, 4, 7, 9, 10], "fragment_generic": [-2, 2, -2], "fragment_specific": [-3, 3, -3], "mode": 3, "transposition": 3, "order": ["chromatic", "diatonic"], "question_num": 29, "excluded": false}, {"rt": 701.035000005737, "stimulus": "[A] option 1, [L] option 2", "key_press": 76, "name": "choice", "trial_type": "html-keyboard-response", "trial_index": 329, "time_elapsed": 484435, "internal_node_id": "0.0-329.0", "subject": "SVGb0006", "sona": "39623", "block": 3, "time": "2021-03-09T22:53:59.584Z", "response": "2nd", "certainty": "high", "char": "L", "diatonic": [4, 2, 1, -2, -3, -5, -6, -8, -10], "chromatic": [4, 2, 1, -1, -2, -4, -5, -7, -8], "unique_diatonic": 7, "unique_chromatic": 8, "necklace": [0, 2, 4, 5, 7, 8, 11], "scale": [0, 2, 3, 5, 6, 9, 10], "fragment_generic": [-1, -1], "fragment_specific": [-2, -1], "mode": 1, "transposition": 4, "order": ["diatonic", "chromatic"], "question_num": 30, "excluded": false}]}, {"dir": "./data/SVGb0006/csv/SVGb0006_block_4.json", "block": 4, "repetition": [{"rt": 3560.4899999890476, "stimulus": "[A] option 1, [L] option 2", "key_press": 76, "name": "choice", "trial_type": "html-keyboard-response", "trial_index": 10, "time_elapsed": 19486, "internal_node_id": "0.0-10.0", "subject": "SVGb0006", "sona": "39623", "block": 4, "time": "2021-03-09T23:02:47.645Z", "response": "2nd", "certainty": "high", "char": "L", "diatonic": [3, 7, 5, 7, 10, 8, 10, 13, 11, 13, 17, 15, 17], "chromatic": [3, 7, 5, 7, 11, 9, 11, 15, 13, 15, 19, 17, 19], "unique_diatonic": 7, "unique_chromatic": 6, "necklace": [0, 2, 3, 5, 7, 9, 11], "scale": [0, 2, 4, 5, 7, 8, 10], "fragment_generic": [2, -1, 1], "fragment_specific": [4, -2, 2], "mode": 4, "transposition": 3, "order": ["diatonic", "chromatic"], "question_num": 1, "excluded": false}, {"rt": 1276.624999998603, "stimulus": "[A] option 1, [L] option 2", "key_press": 65, "name": "choice", "trial_type": "html-keyboard-response", "trial_index": 21, "time_elapsed": 34693, "internal_node_id": "0.0-21.0", "subject": "SVGb0006", "sona": "39623", "block": 4, "time": "2021-03-09T23:02:47.645Z", "response": "1st", "certainty": "high", "char": "A", "diatonic": [5, 4, 2, 0, -1, -4, -5, -7, -8], "chromatic": [5, 4, 2, 1, -1, -2, -4, -5, -7], "unique_diatonic": 7, "unique_chromatic": 8, "necklace": [0, 2, 4, 5, 7, 8, 11], "scale": [0, 2, 3, 6, 7, 9, 11], "fragment_generic": [-1, -1], "fragment_specific": [-1, -2], "mode": 3, "transposition": 5, "order": ["diatonic", "chromatic"], "question_num": 2, "excluded": false}, {"rt": 1316.8650000006892, "stimulus": "[A] option 1, [L] option 2", "key_press": 76, "name": "choice", "trial_type": "html-keyboard-response", "trial_index": 32, "time_elapsed": 49525, "internal_node_id": "0.0-32.0", "subject": "SVGb0006", "sona": "39623", "block": 4, "time": "2021-03-09T23:02:47.645Z", "response": "2nd", "certainty": "high", "char": "L", "diatonic": [2, 1, -1, -2, -4, -6, -7, -10, -11], "chromatic": [2, 1, -1, -2, -4, -5, -7, -8, -10], "unique_diatonic": 7, "unique_chromatic": 8, "necklace": [0, 2, 4, 5, 7, 8, 11], "scale": [0, 3, 4, 6, 8, 9, 11], "fragment_generic": [-1, -1], "fragment_specific": [-1, -2], "mode": 5, "transposition": 2, "order": ["chromatic", "diatonic"], "question_num": 3, "excluded": false}, {"rt": 1166.3550000083633, "stimulus": "[A] option 1, [L] option 2", "key_press": 65, "name": "choice", "trial_type": "html-keyboard-response", "trial_index": 43, "time_elapsed": 67219, "internal_node_id": "0.0-43.0", "subject": "SVGb0006", "sona": "39623", "block": 4, "time": "2021-03-09T23:02:47.645Z", "response": "1st", "certainty": "high", "char": "A", "diatonic": [3, 0, 3, 1, -2, 1, 0, -4, 0, -2, -6, -2, -4], "chromatic": [3, 0, 3, 1, -2, 1, -1, -4, -1, -3, -6, -3, -5], "unique_diatonic": 6, "unique_chromatic": 9, "necklace": [0, 2, 3, 5, 7, 9, 11], "scale": [0, 1, 3, 5, 7, 9, 10], "fragment_generic": [-2, 2, -1], "fragment_specific": [-3, 3, -2], "mode": 1, "transposition": 3, "order": ["diatonic", "chromatic"], "question_num": 4, "excluded": false}, {"rt": 523.9600000057835, "stimulus": "[A] option 1, [L] option 2", "key_press": 76, "name": "choice", "trial_type": "html-keyboard-response", "trial_index": 54, "time_elapsed": 84636, "internal_node_id": "0.0-54.0", "subject": "SVGb0006", "sona": "39623", "block": 4, "time": "2021-03-09T23:02:47.645Z", "response": "2nd", "certainty": "high", "char": "L", "diatonic": [1, 4, 2, -1, 2, 1, -4, 1, -1, -5, -1, -4, -7], "chromatic": [1, 4, 2, -1, 2, 0, -3, 0, -2, -5, -2, -4, -7], "unique_diatonic": 7, "unique_chromatic": 10, "necklace": [0, 2, 3, 5, 6, 8, 9], "scale": [0, 1, 3, 4, 6, 7, 10], "fragment_generic": [2, -1, -2], "fragment_specific": [3, -2, -3], "mode": 1, "transposition": 1, "order": ["diatonic", "chromatic"], "question_num": 5, "excluded": false}, {"rt": 536.2400000013877, "stimulus": "[A] option 1, [L] option 2", "key_press": 65, "name": "choice", "trial_type": "html-keyboard-response", "trial_index": 65, "time_elapsed": 102041, "internal_node_id": "0.0-65.0", "subject": "SVGb0006", "sona": "39623", "block": 4, "time": "2021-03-09T23:02:47.645Z", "response": "1st", "certainty": "high", "char": "A", "diatonic": [4, 5, 10, 5, 8, 11, 8, 10, 13, 10, 11, 14, 11], "chromatic": [4, 5, 10, 5, 6, 11, 6, 7, 12, 7, 8, 13, 8], "unique_diatonic": 7, "unique_chromatic": 9, "necklace": [0, 2, 3, 5, 6, 8, 9], "scale": [0, 1, 4, 6, 7, 9, 10], "fragment_generic": [1, 2, -2], "fragment_specific": [1, 5, -5], "mode": 5, "transposition": 4, "order": ["diatonic", "chromatic"], "question_num": 6, "excluded": false}, {"rt": 409.12499999115244, "stimulus": "[A] option 1, [L] option 2", "key_press": 65, "name": "choice", "trial_type": "html-keyboard-response", "trial_index": 76, "time_elapsed": 115898, "internal_node_id": "0.0-76.0", "subject": "SVGb0006", "sona": "39623", "block": 4, "time": "2021-03-09T23:02:47.645Z", "response": "1st", "certainty": "high", "char": "A", "diatonic": [0, -3, -1, -5, -3, -6, -5, -9, -6], "chromatic": [0, -3, -1, -4, -2, -5, -3, -6, -4], "unique_diatonic": 6, "unique_chromatic": 7, "necklace": [0, 2, 4, 5, 7, 8, 11], "scale": [0, 2, 3, 6, 7, 9, 11], "fragment_generic": [-2, 1], "fragment_specific": [-3, 2], "mode": 3, "transposition": 0, "order": ["diatonic", "chromatic"], "question_num": 7, "excluded": false}, {"rt": 1486.1600000006147, "stimulus": "[A] option 1, [L] option 2", "key_press": 76, "name": "choice", "trial_type": "html-keyboard-response", "trial_index": 87, "time_elapsed": 133840, "internal_node_id": "0.0-87.0", "subject": "SVGb0006", "sona": "39623", "block": 4, "time": "2021-03-09T23:02:47.645Z", "response": "2nd", "certainty": "high", "char": "L", "diatonic": [5, 8, 5, 1, 5, 1, -2, 1, -2, -5, -2, -5, -9], "chromatic": [5, 8, 5, 1, 4, 1, -3, 0, -3, -7, -4, -7, -11], "unique_diatonic": 6, "unique_chromatic": 6, "necklace": [0, 2, 3, 5, 7, 9, 11], "scale": [0, 2, 3, 5, 6, 8, 10], "fragment_generic": [2, -2, -2], "fragment_specific": [3, -3, -4], "mode": 5, "transposition": 5, "order": ["diatonic", "chromatic"], "question_num": 8, "excluded": false}, {"rt": 330.96999999531545, "stimulus": "[A] option 1, [L] option 2", "key_press": 76, "name": "choice", "trial_type": "html-keyboard-response", "trial_index": 98, "time_elapsed": 150489, "internal_node_id": "0.0-98.0", "subject": "SVGb0006", "sona": "39623", "block": 4, "time": "2021-03-09T23:02:47.645Z", "response": "2nd", "certainty": "high", "char": "L", "diatonic": [7, 4, 1, 3, 1, -2, 0, -2, -5, -3, -5, -9, -8], "chromatic": [7, 4, 1, 3, 0, -3, -1, -4, -7, -5, -8, -11, -9], "unique_diatonic": 7, "unique_chromatic": 9, "necklace": [0, 2, 3, 5, 6, 8, 9], "scale": [0, 2, 3, 5, 6, 8, 9], "fragment_generic": [-1, -2, 1], "fragment_specific": [-3, -3, 2], "mode": 0, "transposition": 7, "order": ["chromatic", "diatonic"], "question_num": 9, "excluded": false}, {"rt": 727.2649999940768, "stimulus": "[A] option 1, [L] option 2", "key_press": 76, "name": "choice", "trial_type": "html-keyboard-response", "trial_index": 109, "time_elapsed": 167418, "internal_node_id": "0.0-109.0", "subject": "SVGb0006", "sona": "39623", "block": 4, "time": "2021-03-09T23:02:47.645Z", "response": "2nd", "certainty": "high", "char": "L", "diatonic": [3, 6, 10, 6, 10, 14, 10, 14, 17, 14, 17, 21, 17], "chromatic": [3, 6, 10, 6, 9, 13, 9, 12, 16, 12, 15, 19, 15], "unique_diatonic": 6, "unique_chromatic": 8, "necklace": [0, 2, 4, 5, 7, 8, 11], "scale": [0, 2, 3, 6, 7, 9, 11], "fragment_generic": [2, 2, -2], "fragment_specific": [3, 4, -4], "mode": 3, "transposition": 3, "order": ["chromatic", "diatonic"], "question_num": 10, "excluded": false}, {"rt": 1783.850000007078, "stimulus": "[A] option 1, [L] option 2", "key_press": 76, "name": "choice", "trial_type": "html-keyboard-response", "trial_index": 120, "time_elapsed": 183330, "internal_node_id": "0.0-120.0", "subject": "SVGb0006", "sona": "39623", "block": 4, "time": "2021-03-09T23:02:47.645Z", "response": "2nd", "certainty": "high", "char": "L", "diatonic": [3, 0, 2, -1, 0, -3, -1, -5, -3], "chromatic": [3, 0, 2, -1, 1, -2, 0, -3, -1], "unique_diatonic": 6, "unique_chromatic": 7, "necklace": [0, 2, 4, 5, 7, 8, 11], "scale": [0, 3, 4, 6, 8, 9, 11], "fragment_generic": [-2, 1], "fragment_specific": [-3, 2], "mode": 5, "transposition": 3, "order": ["diatonic", "chromatic"], "question_num": 11, "excluded": false}, {"rt": 875.9450000070501, "stimulus": "[A] option 1, [L] option 2", "key_press": 65, "name": "choice", "trial_type": "html-keyboard-response", "trial_index": 131, "time_elapsed": 201603, "internal_node_id": "0.0-131.0", "subject": "SVGb0006", "sona": "39623", "block": 4, "time": "2021-03-09T23:02:47.645Z", "response": "1st", "certainty": "high", "char": "A", "diatonic": [6, 7, 6, 7, 9, 7, 9, 11, 9, 11, 13, 11, 13], "chromatic": [6, 7, 6, 7, 8, 7, 8, 9, 8, 9, 10, 9, 10], "unique_diatonic": 5, "unique_chromatic": 5, "necklace": [0, 2, 3, 5, 7, 9, 11], "scale": [0, 1, 3, 5, 7, 9, 10], "fragment_generic": [1, -1, 1], "fragment_specific": [1, -1, 1], "mode": 1, "transposition": 6, "order": ["diatonic", "chromatic"], "question_num": 12, "excluded": false}, {"rt": 585.9400000043679, "stimulus": "[A] option 1, [L] option 2", "key_press": 65, "name": "choice", "trial_type": "html-keyboard-response", "trial_index": 142, "time_elapsed": 218618, "internal_node_id": "0.0-142.0", "subject": "SVGb0006", "sona": "39623", "block": 4, "time": "2021-03-09T23:02:47.645Z", "response": "1st", "certainty": "high", "char": "A", "diatonic": [6, 10, 6, 4, 8, 4, 3, 6, 3, 1, 4, 1, 0], "chromatic": [6, 10, 6, 4, 8, 4, 2, 6, 2, 0, 4, 0, -2], "unique_diatonic": 7, "unique_chromatic": 6, "necklace": [0, 2, 3, 5, 7, 9, 11], "scale": [0, 2, 4, 6, 7, 9, 10], "fragment_generic": [2, -2, -1], "fragment_specific": [4, -4, -2], "mode": 3, "transposition": 6, "order": ["diatonic", "chromatic"], "question_num": 13, "excluded": false}, {"rt": 347.51000000699423, "stimulus": "[A] option 1, [L] option 2", "key_press": 65, "name": "choice", "trial_type": "html-keyboard-response", "trial_index": 153, "time_elapsed": 235621, "internal_node_id": "0.0-153.0", "subject": "SVGb0006", "sona": "39623", "block": 4, "time": "2021-03-09T23:02:47.645Z", "response": "1st", "certainty": "high", "char": "A", "diatonic": [6, 10, 6, 3, 6, 3, 0, 3, 0, -4, 0, -4, -7], "chromatic": [6, 10, 6, 3, 7, 3, 0, 4, 0, -3, 1, -3, -6], "unique_diatonic": 6, "unique_chromatic": 8, "necklace": [0, 2, 3, 5, 7, 9, 11], "scale": [0, 2, 4, 6, 8, 9, 11], "fragment_generic": [2, -2, -2], "fragment_specific": [4, -4, -3], "mode": 2, "transposition": 6, "order": ["diatonic", "chromatic"], "question_num": 14, "excluded": false}, {"rt": 564.3050000071526, "stimulus": "[A] option 1, [L] option 2", "key_press": 76, "name": "choice", "trial_type": "html-keyboard-response", "trial_index": 164, "time_elapsed": 252637, "internal_node_id": "0.0-164.0", "subject": "SVGb0006", "sona": "39623", "block": 4, "time": "2021-03-09T23:02:47.645Z", "response": "2nd", "certainty": "high", "char": "L", "diatonic": [1, -2, 1, 0, -4, 0, -2, -6, -2, -4, -8, -4, -6], "chromatic": [1, -2, 1, 0, -3, 0, -1, -4, -1, -2, -5, -2, -3], "unique_diatonic": 6, "unique_chromatic": 7, "necklace": [0, 2, 3, 5, 7, 9, 11], "scale": [0, 2, 3, 5, 7, 9, 11], "fragment_generic": [-2, 2, -1], "fragment_specific": [-3, 3, -1], "mode": 0, "transposition": 1, "order": ["diatonic", "chromatic"], "question_num": 15, "excluded": false}, {"rt": 650.2249999903142, "stimulus": "[A] option 1, [L] option 2", "key_press": 65, "name": "choice", "trial_type": "html-keyboard-response", "trial_index": 175, "time_elapsed": 269489, "internal_node_id": "0.0-175.0", "subject": "SVGb0006", "sona": "39623", "block": 4, "time": "2021-03-09T23:02:47.645Z", "response": "1st", "certainty": "high", "char": "A", "diatonic": [3, 5, 2, 0, 2, -3, -4, -3, -6, -7, -6, -9, -10], "chromatic": [3, 5, 2, 0, 2, -1, -3, -1, -4, -6, -4, -7, -9], "unique_diatonic": 7, "unique_chromatic": 8, "necklace": [0, 2, 3, 5, 6, 8, 9], "scale": [0, 2, 3, 5, 6, 9, 11], "fragment_generic": [1, -2, -1], "fragment_specific": [2, -3, -2], "mode": 2, "transposition": 3, "order": ["chromatic", "diatonic"], "question_num": 16, "excluded": false}, {"rt": 14228.780000004917, "stimulus": "[A] option 1, [L] option 2", "key_press": 65, "name": "choice", "trial_type": "html-keyboard-response", "trial_index": 186, "time_elapsed": 301580, "internal_node_id": "0.0-186.0", "subject": "SVGb0006", "sona": "39623", "block": 4, "time": "2021-03-09T23:02:47.645Z", "response": "1st", "certainty": "high", "char": "A", "diatonic": [3, 1, 3, 1, 0, 1, 0, -2, 0, -2, -4, -2, -4], "chromatic": [3, 1, 3, 1, -1, 1, -1, -3, -1, -3, -5, -3, -5], "unique_diatonic": 5, "unique_chromatic": 5, "necklace": [0, 2, 3, 5, 7, 9, 11], "scale": [0, 1, 3, 5, 7, 9, 10], "fragment_generic": [-1, 1, -1], "fragment_specific": [-2, 2, -2], "mode": 1, "transposition": 3, "order": ["diatonic", "chromatic"], "question_num": 17, "excluded": false}, {"rt": 411.82999999728054, "stimulus": "[A] option 1, [L] option 2", "key_press": 65, "name": "choice", "trial_type": "html-keyboard-response", "trial_index": 197, "time_elapsed": 318252, "internal_node_id": "0.0-197.0", "subject": "SVGb0006", "sona": "39623", "block": 4, "time": "2021-03-09T23:02:47.645Z", "response": "1st", "certainty": "high", "char": "A", "diatonic": [2, 5, 2, -1, 1, -1, -4, -2, -4, -7, -5, -7, -11], "chromatic": [2, 5, 2, -1, 2, -1, -4, -1, -4, -7, -4, -7, -10], "unique_diatonic": 7, "unique_chromatic": 4, "necklace": [0, 2, 3, 5, 6, 8, 9], "scale": [0, 3, 5, 6, 8, 9, 11], "fragment_generic": [1, -1, -2], "fragment_specific": [3, -3, -3], "mode": 6, "transposition": 2, "order": ["chromatic", "diatonic"], "question_num": 18, "excluded": false}, {"rt": 1050.905000010971, "stimulus": "[A] option 1, [L] option 2", "key_press": 65, "name": "choice", "trial_type": "html-keyboard-response", "trial_index": 208, "time_elapsed": 333206, "internal_node_id": "0.0-208.0", "subject": "SVGb0006", "sona": "39623", "block": 4, "time": "2021-03-09T23:02:47.645Z", "response": "1st", "certainty": "high", "char": "A", "diatonic": [3, 4, 1, 3, 0, 1, -2, 0, -4], "chromatic": [3, 4, 1, 2, -1, 0, -3, -2, -5], "unique_diatonic": 6, "unique_chromatic": 9, "necklace": [0, 2, 4, 5, 7, 8, 11], "scale": [0, 1, 4, 5, 7, 9, 10], "fragment_generic": [1, -2], "fragment_specific": [1, -3], "mode": 4, "transposition": 3, "order": ["chromatic", "diatonic"], "question_num": 19, "excluded": false}, {"rt": 636.5450000013225, "stimulus": "[A] option 1, [L] option 2", "key_press": 65, "name": "choice", "trial_type": "html-keyboard-response", "trial_index": 219, "time_elapsed": 350550, "internal_node_id": "0.0-219.0", "subject": "SVGb0006", "sona": "39623", "block": 4, "time": "2021-03-09T23:02:47.645Z", "response": "1st", "certainty": "high", "char": "A", "diatonic": [2, -1, 2, 5, 2, 5, 9, 5, 9, 13, 9, 13, 16], "chromatic": [2, -1, 2, 5, 2, 5, 8, 5, 8, 11, 8, 11, 14], "unique_diatonic": 6, "unique_chromatic": 4, "necklace": [0, 2, 4, 5, 7, 8, 11], "scale": [0, 2, 3, 6, 7, 9, 11], "fragment_generic": [-2, 2, 2], "fragment_specific": [-3, 3, 3], "mode": 3, "transposition": 2, "order": ["chromatic", "diatonic"], "question_num": 20, "excluded": false}, {"rt": 702.7900000102818, "stimulus": "[A] option 1, [L] option 2", "key_press": 65, "name": "choice", "trial_type": "html-keyboard-response", "trial_index": 230, "time_elapsed": 368456, "internal_node_id": "0.0-230.0", "subject": "SVGb0006", "sona": "39623", "block": 4, "time": "2021-03-09T23:02:47.645Z", "response": "1st", "certainty": "high", "char": "A", "diatonic": [4, 7, 3, 1, 3, 0, -2, 0, -3, -5, -3, -8, -9], "chromatic": [4, 7, 3, 1, 4, 0, -2, 1, -3, -5, -2, -6, -8], "unique_diatonic": 7, "unique_chromatic": 8, "necklace": [0, 2, 3, 5, 6, 8, 9], "scale": [0, 3, 5, 6, 8, 9, 11], "fragment_generic": [1, -2, -1], "fragment_specific": [3, -4, -2], "mode": 6, "transposition": 4, "order": ["diatonic", "chromatic"], "question_num": 21, "excluded": false}, {"rt": 870.3299999907613, "stimulus": "[A] option 1, [L] option 2", "key_press": 65, "name": "choice", "trial_type": "html-keyboard-response", "trial_index": 241, "time_elapsed": 386207, "internal_node_id": "0.0-241.0", "subject": "SVGb0006", "sona": "39623", "block": 4, "time": "2021-03-09T23:02:47.645Z", "response": "1st", "certainty": "high", "char": "A", "diatonic": [3, 4, 1, 0, 1, -2, -4, -2, -6, -8, -6, -9, -11], "chromatic": [3, 4, 1, 0, 1, -2, -3, -2, -5, -6, -5, -8, -9], "unique_diatonic": 7, "unique_chromatic": 8, "necklace": [0, 2, 3, 5, 7, 9, 11], "scale": [0, 1, 3, 5, 7, 9, 10], "fragment_generic": [1, -2, -1], "fragment_specific": [1, -3, -1], "mode": 1, "transposition": 3, "order": ["diatonic", "chromatic"], "question_num": 22, "excluded": false}, {"rt": 812.5250000008382, "stimulus": "[A] option 1, [L] option 2", "key_press": 76, "name": "choice", "trial_type": "html-keyboard-response", "trial_index": 252, "time_elapsed": 400767, "internal_node_id": "0.0-252.0", "subject": "SVGb0006", "sona": "39623", "block": 4, "time": "2021-03-09T23:02:47.645Z", "response": "2nd", "certainty": "high", "char": "L", "diatonic": [6, 5, 8, 6, 10, 8, 11, 10, 13], "chromatic": [6, 5, 8, 7, 10, 9, 12, 11, 14], "unique_diatonic": 6, "unique_chromatic": 9, "necklace": [0, 2, 4, 5, 7, 8, 11], "scale": [0, 2, 4, 5, 7, 8, 11], "fragment_generic": [-1, 2], "fragment_specific": [-1, 3], "mode": 0, "transposition": 6, "order": ["chromatic", "diatonic"], "question_num": 23, "excluded": false}, {"rt": 846.929999999702, "stimulus": "[A] option 1, [L] option 2", "key_press": 65, "name": "choice", "trial_type": "html-keyboard-response", "trial_index": 263, "time_elapsed": 414907, "internal_node_id": "0.0-263.0", "subject": "SVGb0006", "sona": "39623", "block": 4, "time": "2021-03-09T23:02:47.645Z", "response": "1st", "certainty": "high", "char": "A", "diatonic": [5, 7, 8, 10, 11, 14, 15, 17, 19], "chromatic": [5, 7, 8, 10, 11, 13, 14, 16, 17], "unique_diatonic": 7, "unique_chromatic": 8, "necklace": [0, 2, 4, 5, 7, 8, 11], "scale": [0, 2, 3, 5, 6, 9, 10], "fragment_generic": [1, 1], "fragment_specific": [2, 1], "mode": 1, "transposition": 5, "order": ["diatonic", "chromatic"], "question_num": 24, "excluded": false}, {"rt": 2528.214999998454, "stimulus": "[A] option 1, [L] option 2", "key_press": 65, "name": "choice", "trial_type": "html-keyboard-response", "trial_index": 274, "time_elapsed": 430788, "internal_node_id": "0.0-274.0", "subject": "SVGb0006", "sona": "39623", "block": 4, "time": "2021-03-09T23:02:47.645Z", "response": "1st", "certainty": "high", "char": "A", "diatonic": [3, 2, 5, 3, 6, 5, 9, 6, 11], "chromatic": [3, 2, 5, 4, 7, 6, 9, 8, 11], "unique_diatonic": 6, "unique_chromatic": 9, "necklace": [0, 2, 3, 5, 6, 8, 9], "scale": [0, 2, 3, 6, 8, 9, 11], "fragment_generic": [-1, 2], "fragment_specific": [-1, 3], "mode": 4, "transposition": 3, "order": ["diatonic", "chromatic"], "question_num": 25, "excluded": false}, {"rt": 1424.5749999973923, "stimulus": "[A] option 1, [L] option 2", "key_press": 65, "name": "choice", "trial_type": "html-keyboard-response", "trial_index": 285, "time_elapsed": 448609, "internal_node_id": "0.0-285.0", "subject": "SVGb0006", "sona": "39623", "block": 4, "time": "2021-03-09T23:02:47.645Z", "response": "1st", "certainty": "high", "char": "A", "diatonic": [3, 2, 3, 2, 0, 2, 0, -2, 0, -2, -4, -2, -4], "chromatic": [3, 2, 3, 2, 1, 2, 1, 0, 1, 0, -1, 0, -1], "unique_diatonic": 5, "unique_chromatic": 5, "necklace": [0, 2, 3, 5, 7, 9, 11], "scale": [0, 2, 3, 5, 7, 9, 11], "fragment_generic": [-1, 1, -1], "fragment_specific": [-1, 1, -1], "mode": 0, "transposition": 3, "order": ["diatonic", "chromatic"], "question_num": 26, "excluded": false}, {"rt": 3916.169999996666, "stimulus": "[A] option 1, [L] option 2", "key_press": 65, "name": "choice", "trial_type": "html-keyboard-response", "trial_index": 296, "time_elapsed": 467425, "internal_node_id": "0.0-296.0", "subject": "SVGb0006", "sona": "39623", "block": 4, "time": "2021-03-09T23:02:47.645Z", "response": "1st", "certainty": "high", "char": "A", "diatonic": [5, 2, 3, 0, 2, -1, 0, -3, -1], "chromatic": [5, 2, 3, 0, 1, -2, -1, -4, -3], "unique_diatonic": 6, "unique_chromatic": 9, "necklace": [0, 2, 3, 5, 6, 8, 9], "scale": [0, 1, 4, 6, 7, 9, 10], "fragment_generic": [-2, 1], "fragment_specific": [-3, 1], "mode": 5, "transposition": 5, "order": ["chromatic", "diatonic"], "question_num": 27, "excluded": false}, {"rt": 772.5099999955855, "stimulus": "[A] option 1, [L] option 2", "key_press": 65, "name": "choice", "trial_type": "html-keyboard-response", "trial_index": 307, "time_elapsed": 485412, "internal_node_id": "0.0-307.0", "subject": "SVGb0006", "sona": "39623", "block": 4, "time": "2021-03-09T23:02:47.645Z", "response": "1st", "certainty": "high", "char": "A", "diatonic": [6, 5, 6, 5, 3, 5, 3, 1, 3, 1, -1, 1, -1], "chromatic": [6, 5, 6, 5, 4, 5, 4, 3, 4, 3, 2, 3, 2], "unique_diatonic": 5, "unique_chromatic": 5, "necklace": [0, 2, 3, 5, 7, 9, 11], "scale": [0, 2, 3, 5, 7, 9, 11], "fragment_generic": [-1, 1, -1], "fragment_specific": [-1, 1, -1], "mode": 7, "transposition": 6, "order": ["chromatic", "diatonic"], "question_num": 28, "excluded": false}, {"rt": 1123.0249999933876, "stimulus": "[A] option 1, [L] option 2", "key_press": 76, "name": "choice", "trial_type": "html-keyboard-response", "trial_index": 318, "time_elapsed": 503399, "internal_node_id": "0.0-318.0", "subject": "SVGb0006", "sona": "39623", "block": 4, "time": "2021-03-09T23:02:47.645Z", "response": "2nd", "certainty": "high", "char": "L", "diatonic": [2, -1, 2, -1, -4, -1, -4, -8, -4, -8, -11, -8, -11], "chromatic": [2, -1, 2, -1, -4, -1, -4, -7, -4, -7, -10, -7, -10], "unique_diatonic": 5, "unique_chromatic": 4, "necklace": [0, 2, 3, 5, 6, 8, 9], "scale": [0, 2, 3, 6, 8, 9, 11], "fragment_generic": [-2, 2, -2], "fragment_specific": [-3, 3, -3], "mode": 4, "transposition": 2, "order": ["diatonic", "chromatic"], "question_num": 29, "excluded": false}, {"rt": 3986.479999992531, "stimulus": "[A] option 1, [L] option 2", "key_press": 65, "name": "choice", "trial_type": "html-keyboard-response", "trial_index": 329, "time_elapsed": 524293, "internal_node_id": "0.0-329.0", "subject": "SVGb0006", "sona": "39623", "block": 4, "time": "2021-03-09T23:02:47.645Z", "response": "1st", "certainty": "high", "char": "A", "diatonic": [1, 4, 7, 4, 7, 10, 7, 10, 14, 10, 14, 18, 14], "chromatic": [1, 4, 7, 4, 7, 10, 7, 10, 13, 10, 13, 16, 13], "unique_diatonic": 6, "unique_chromatic": 4, "necklace": [0, 2, 4, 5, 7, 8, 11], "scale": [0, 1, 3, 5, 6, 8, 9], "fragment_generic": [2, 2, -2], "fragment_specific": [3, 3, -3], "mode": 6, "transposition": 1, "order": ["chromatic", "diatonic"], "question_num": 30, "excluded": false}]}], "excluded": false, "analyzed": {"block": [{"sets": {"0, 2, 3, 5, 6, 8, 9": {"trials_total": 10, "chose_diatonic": 4, "chose_chromatic": 6, "rts": [3299.6649999986403, 2222.9200000001583, 727.3799999966286, 1365.9699999989243, 1068.169999998645, 687.5449999934062, 700.3100000001723, 257.7900000032969, 448.5100000019884, 421.0849999944912, 739.8150000080932, 621.6699999931734, 1146.6650000074878, 904.9949999898672, 792.5800000084564, 739.1900000075111, 1562.6849999971455, 386.04500000656117, 213.7700000021141, 994.1099999996368, 519.0500000026077, 282.2449999949895, 680.5800000000745, 577.3700000136159, 457.7900000005029, 576.5150000078138, 332.7900000002701, 587.8700000031386, 911.164999997709, 1196.869999999879, 1743.0750000057742, 523.9600000057835, 536.2400000013877, 330.96999999531545, 650.2249999903142, 411.82999999728054, 702.7900000102818, 2528.214999998454, 3916.169999996666, 1123.0249999933876], "rt_diatonic": [2222.9200000001583, 1365.9699999989243, 1068.169999998645, 257.7900000032969, 621.6699999931734, 739.1900000075111, 1562.6849999971455, 386.04500000656117, 213.7700000021141, 577.3700000136159, 457.7900000005029, 576.5150000078138, 332.7900000002701, 587.8700000031386, 911.164999997709, 1743.0750000057742, 536.2400000013877, 330.96999999531545, 702.7900000102818, 2528.214999998454], "rt_chromatic": [3299.6649999986403, 727.3799999966286, 687.5449999934062, 700.3100000001723, 448.5100000019884, 421.0849999944912, 739.8150000080932, 1146.6650000074878, 904.9949999898672, 792.5800000084564, 994.1099999996368, 519.0500000026077, 282.2449999949895, 680.5800000000745, 1196.869999999879, 523.9600000057835, 650.2249999903142, 411.82999999728054, 3916.169999996666, 1123.0249999933876]}, "0, 2, 4, 5, 7, 8, 11": {"trials_total": 6, "chose_diatonic": 3, "chose_chromatic": 3, "rts": [1085.5199999932665, 841.839999993681, 2202.2950000100536, 452.4600000004284, 488.23499999707565, 1416.960000002291, 385.81999999587424, 298.36500000965316, 1384.1749999992317, 4187.9250000056345, 1257.3899999988498, 891.0000000032596, 681.9699999905424, 272.90999999968335, 128501.44999999623, 628.0899999982212, 474.1649999925867, 749.4699999953154, 344.5700000009965, 367.4949999987148, 460.31500000390224, 409.10999999335036, 187.34500001301058, 445.4600000025239, 562.9049999988638, 434.78999999933876, 249.15500001236796, 339.76000000257045, 267.02499999362044, 701.035000005737, 1276.624999998603, 1316.8650000006892, 409.12499999115244, 727.2649999940768, 1783.850000007078, 1050.905000010971, 636.5450000013225, 812.5250000008382, 846.929999999702, 3986.479999992531], "rt_diatonic": [841.839999993681, 2202.2950000100536, 488.23499999707565, 4187.9250000056345, 1257.3899999988498, 891.0000000032596, 272.90999999968335, 367.4949999987148, 187.34500001301058, 249.15500001236796, 1276.624999998603, 1316.8650000006892, 409.12499999115244, 727.2649999940768, 812.5250000008382, 846.929999999702], "rt_chromatic": [1085.5199999932665, 452.4600000004284, 1416.960000002291, 385.81999999587424, 298.36500000965316, 1384.1749999992317, 681.9699999905424, 128501.44999999623, 628.0899999982212, 474.1649999925867, 749.4699999953154, 344.5700000009965, 460.31500000390224, 409.10999999335036, 445.4600000025239, 562.9049999988638, 434.78999999933876, 339.76000000257045, 267.02499999362044, 701.035000005737, 1783.850000007078, 1050.905000010971, 636.5450000013225, 3986.479999992531]}, "0, 2, 3, 5, 7, 9, 11": {"trials_total": 14, "chose_diatonic": 8, "chose_chromatic": 6, "rts": [3506.7050000070594, 2211.989999996149, 1688.3749999979045, 792.3449999943841, 726.3550000061514, 1662.4299999966752, 368.1700000015553, 1471.350000007078, 1364.5150000083959, 264.195000010659, 400.79500000865664, 302.01499999384396, 354.5550000126241, 220.44999999343418, 218.9899999939371, 1323.434999998426, 344.10999999090564, 308.38000000221655, 1813.3900000102585, 511.2399999925401, 521.6900000086753, 716.8749999982538, 864.2600000021048, 1509.715000007418, 274.95000000623986, 310.88000000454485, 273.6049999948591, 499.99499999103136, 2397.6649999967776, 3560.4899999890476, 1166.3550000083633, 1486.1600000006147, 875.9450000070501, 585.9400000043679, 347.51000000699423, 564.3050000071526, 14228.780000004917, 870.3299999907613, 1424.5749999973923, 772.5099999955855], "rt_diatonic": [3506.7050000070594, 2211.989999996149, 726.3550000061514, 1471.350000007078, 1364.5150000083959, 264.195000010659, 400.79500000865664, 302.01499999384396, 218.9899999939371, 1323.434999998426, 1813.3900000102585, 716.8749999982538, 274.95000000623986, 499.99499999103136, 2397.6649999967776, 1166.3550000083633, 875.9450000070501, 585.9400000043679, 347.51000000699423, 14228.780000004917, 870.3299999907613, 1424.5749999973923], "rt_chromatic": [1688.3749999979045, 792.3449999943841, 1662.4299999966752, 368.1700000015553, 354.5550000126241, 220.44999999343418, 344.10999999090564, 308.38000000221655, 511.2399999925401, 521.6900000086753, 864.2600000021048, 1509.715000007418, 310.88000000454485, 273.6049999948591, 3560.4899999890476, 1486.1600000006147, 564.3050000071526, 772.5099999955855]}}, "pressed_button1": 19, "pressed_button2": 11}, {"sets": {"0, 2, 3, 5, 7, 9, 11": {"trials_total": 10, "chose_diatonic": 4, "chose_chromatic": 6, "rts": [218.9899999939371, 1323.434999998426, 344.10999999090564, 308.38000000221655, 1813.3900000102585, 511.2399999925401, 521.6900000086753, 716.8749999982538, 864.2600000021048, 1509.715000007418], "rt_diatonic": [218.9899999939371, 1323.434999998426, 1813.3900000102585, 716.8749999982538], "rt_chromatic": [344.10999999090564, 308.38000000221655, 511.2399999925401, 521.6900000086753, 864.2600000021048, 1509.715000007418]}, "0, 2, 3, 5, 6, 8, 9": {"trials_total": 10, "chose_diatonic": 5, "chose_chromatic": 5, "rts": [739.8150000080932, 621.6699999931734, 1146.6650000074878, 904.9949999898672, 792.5800000084564, 739.1900000075111, 1562.6849999971455, 386.04500000656117, 213.7700000021141, 994.1099999996368], "rt_diatonic": [621.6699999931734, 739.1900000075111, 1562.6849999971455, 386.04500000656117, 213.7700000021141], "rt_chromatic": [739.8150000080932, 1146.6650000074878, 904.9949999898672, 792.5800000084564, 994.1099999996368]}, "0, 2, 4, 5, 7, 8, 11": {"trials_total": 10, "chose_diatonic": 4, "chose_chromatic": 6, "rts": [385.81999999587424, 298.36500000965316, 1384.1749999992317, 4187.9250000056345, 1257.3899999988498, 891.0000000032596, 681.9699999905424, 272.90999999968335, 128501.44999999623, 628.0899999982212], "rt_diatonic": [4187.9250000056345, 1257.3899999988498, 891.0000000032596, 272.90999999968335], "rt_chromatic": [385.81999999587424, 298.36500000965316, 1384.1749999992317, 681.9699999905424, 128501.44999999623, 628.0899999982212]}}, "pressed_button1": 15, "pressed_button2": 15}, {"sets": {"0, 2, 4, 5, 7, 8, 11": {"trials_total": 14, "chose_diatonic": 3, "chose_chromatic": 11, "rts": [474.1649999925867, 749.4699999953154, 344.5700000009965, 367.4949999987148, 460.31500000390224, 409.10999999335036, 187.34500001301058, 445.4600000025239, 562.9049999988638, 434.78999999933876, 249.15500001236796, 339.76000000257045, 267.02499999362044, 701.035000005737], "rt_diatonic": [367.4949999987148, 187.34500001301058, 249.15500001236796], "rt_chromatic": [474.1649999925867, 749.4699999953154, 344.5700000009965, 460.31500000390224, 409.10999999335036, 445.4600000025239, 562.9049999988638, 434.78999999933876, 339.76000000257045, 267.02499999362044, 701.035000005737]}, "0, 2, 3, 5, 7, 9, 11": {"trials_total": 5, "chose_diatonic": 3, "chose_chromatic": 2, "rts": [274.95000000623986, 310.88000000454485, 273.6049999948591, 499.99499999103136, 2397.6649999967776], "rt_diatonic": [274.95000000623986, 499.99499999103136, 2397.6649999967776], "rt_chromatic": [310.88000000454485, 273.6049999948591]}, "0, 2, 3, 5, 6, 8, 9": {"trials_total": 11, "chose_diatonic": 7, "chose_chromatic": 4, "rts": [519.0500000026077, 282.2449999949895, 680.5800000000745, 577.3700000136159, 457.7900000005029, 576.5150000078138, 332.7900000002701, 587.8700000031386, 911.164999997709, 1196.869999999879, 1743.0750000057742], "rt_diatonic": [577.3700000136159, 457.7900000005029, 576.5150000078138, 332.7900000002701, 587.8700000031386, 911.164999997709, 1743.0750000057742], "rt_chromatic": [519.0500000026077, 282.2449999949895, 680.5800000000745, 1196.869999999879]}}, "pressed_button1": 12, "pressed_button2": 18}, {"sets": {"0, 2, 3, 5, 7, 9, 11": {"trials_total": 11, "chose_diatonic": 7, "chose_chromatic": 4, "rts": [3560.4899999890476, 1166.3550000083633, 1486.1600000006147, 875.9450000070501, 585.9400000043679, 347.51000000699423, 564.3050000071526, 14228.780000004917, 870.3299999907613, 1424.5749999973923, 772.5099999955855], "rt_diatonic": [1166.3550000083633, 875.9450000070501, 585.9400000043679, 347.51000000699423, 14228.780000004917, 870.3299999907613, 1424.5749999973923], "rt_chromatic": [3560.4899999890476, 1486.1600000006147, 564.3050000071526, 772.5099999955855]}, "0, 2, 4, 5, 7, 8, 11": {"trials_total": 